"Time (s)";"Acceleration x (m/s^2)";"Acceleration y (m/s^2)";"Acceleration z (m/s^2)";"Absolute acceleration (m/s^2)"
2.467960400E-2;4.938040972E-1;9.935937077E-2;9.830592155E0;9.843488045E0
2.667257300E-2;5.033808947E-1;8.978256583E-2;9.821015358E0;9.834317256E0
2.866595900E-2;5.081692934E-1;9.935937077E-2;9.825803757E0;9.839437371E0
3.065991700E-2;5.081692934E-1;9.457096457E-2;9.816226959E0;9.829826622E0
3.265450000E-2;4.938040972E-1;8.499415964E-2;9.811438560E0;9.824224810E0
3.464976100E-2;4.794389009E-1;8.499415964E-2;9.816226959E0;9.828295752E0
3.664575000E-2;5.033808947E-1;1.041477770E-1;9.811438560E0;9.824895201E0
3.864246900E-2;4.890156984E-1;9.935937077E-2;9.811438560E0;9.824120076E0
4.063986500E-2;4.842272997E-1;8.499415964E-2;9.830592155E0;9.842877740E0
4.263788600E-2;4.842272997E-1;1.137245819E-1;9.811438560E0;9.824038680E0
4.463647900E-2;5.033808947E-1;8.020575345E-2;9.821015358E0;9.834234487E0
4.663554200E-2;5.129576921E-1;8.020575345E-2;9.825803757E0;9.839511066E0
4.863496900E-2;4.938040972E-1;8.978256583E-2;9.816226959E0;9.829049553E0
5.063465700E-2;5.033808947E-1;8.978256583E-2;9.830592155E0;9.843881113E0
5.263444800E-2;5.033808947E-1;8.020575345E-2;9.830592155E0;9.843798424E0
5.463424000E-2;4.890156984E-1;8.978256583E-2;9.821015358E0;9.833592422E0
5.663121900E-2;4.938040972E-1;9.457096457E-2;9.821015358E0;9.833876591E0
5.862793800E-2;4.985924959E-1;9.935937077E-2;9.821015358E0;9.834165416E0
6.062465700E-2;4.890156984E-1;9.935937077E-2;9.816226959E0;9.828902296E0
6.262137500E-2;5.033808947E-1;8.978256583E-2;9.821015358E0;9.834317256E0
6.461809400E-2;5.081692934E-1;9.457096457E-2;9.816226959E0;9.829826622E0
6.661481300E-2;4.938040972E-1;1.041477770E-1;9.811438560E0;9.824409187E0
6.861153200E-2;4.938040972E-1;8.978256583E-2;9.811438560E0;9.824267404E0
7.060825000E-2;5.129576921E-1;8.499415964E-2;9.830592155E0;9.844332975E0
7.260496900E-2;4.890156984E-1;8.978256583E-2;9.835380554E0;9.847939272E0
7.460168800E-2;5.033808947E-1;1.089361757E-1;9.821015358E0;9.834510770E0
7.659840700E-2;4.890156984E-1;8.020575345E-2;9.816226959E0;9.828727335E0
7.859512500E-2;4.985924959E-1;8.978256583E-2;9.830592155E0;9.843637413E0
8.059184400E-2;5.033808947E-1;1.041477770E-1;9.835380554E0;9.848804482E0
8.258856300E-2;4.842272997E-1;1.041477770E-1;9.835380554E0;9.847844103E0
8.458528200E-2;4.890156984E-1;1.041477770E-1;9.816226959E0;9.828951868E0
8.658200000E-2;4.938040972E-1;9.935937077E-2;9.811438560E0;9.824359592E0
8.857871900E-2;5.081692934E-1;9.935937077E-2;9.835380554E0;9.849000912E0
9.057543800E-2;4.938040972E-1;9.935937077E-2;9.830592155E0;9.843488045E0
9.257215700E-2;5.033808947E-1;8.020575345E-2;9.840168953E0;9.853362386E0
9.456887500E-2;4.890156984E-1;1.041477770E-1;9.840168953E0;9.852862941E0
9.656559400E-2;4.890156984E-1;8.499415964E-2;9.811438560E0;9.823985290E0
9.856231300E-2;4.985924959E-1;9.457096457E-2;9.816226959E0;9.829336186E0
1.005590320E-1;4.842272997E-1;8.020575345E-2;9.816226959E0;9.828490258E0
1.025557500E-1;4.985924959E-1;9.935937077E-2;9.821015358E0;9.834165416E0
1.045524690E-1;4.890156984E-1;8.499415964E-2;9.821015358E0;9.833549869E0
1.065491880E-1;4.890156984E-1;9.935937077E-2;9.835380554E0;9.848031239E0
1.085459070E-1;5.033808947E-1;8.020575345E-2;9.821015358E0;9.834234487E0
1.105426250E-1;5.081692934E-1;7.541735470E-2;9.811438560E0;9.824879156E0
1.125393440E-1;4.890156984E-1;8.020575345E-2;9.830592155E0;9.843074288E0
1.145360630E-1;4.842272997E-1;8.020575345E-2;9.825803757E0;9.838055118E0
1.165327820E-1;4.842272997E-1;1.041477770E-1;9.825803757E0;9.838279438E0
1.185295000E-1;4.938040972E-1;8.978256583E-2;9.835380554E0;9.848178209E0
1.205262190E-1;4.985924959E-1;9.457096457E-2;9.811438560E0;9.824554177E0
1.225229380E-1;5.081692934E-1;8.499415964E-2;9.811438560E0;9.824957337E0
1.245196570E-1;4.842272997E-1;1.041477770E-1;9.840168953E0;9.852626445E0
1.265163750E-1;4.938040972E-1;8.978256583E-2;9.830592155E0;9.843396036E0
1.285130940E-1;4.985924959E-1;8.978256583E-2;9.811438560E0;9.824509250E0
1.305098130E-1;5.081692934E-1;8.020575345E-2;9.840168953E0;9.853608172E0
1.325065320E-1;4.890156984E-1;1.089361757E-1;9.830592155E0;9.843350322E0
1.345032500E-1;5.033808947E-1;9.457096457E-2;9.816226959E0;9.829580241E0
1.364999690E-1;4.985924959E-1;8.978256583E-2;9.816226959E0;9.829291282E0
1.384966880E-1;4.890156984E-1;8.499415964E-2;9.816226959E0;9.828767577E0
1.404934070E-1;4.890156984E-1;8.978256583E-2;9.821015358E0;9.833592422E0
1.424901250E-1;4.842272997E-1;9.457096457E-2;9.840168953E0;9.852529866E0
1.444868440E-1;5.033808947E-1;8.978256583E-2;9.830592155E0;9.843881113E0
1.464835630E-1;4.938040972E-1;8.978256583E-2;9.816226959E0;9.829049553E0
1.484802820E-1;4.985924959E-1;9.935937077E-2;9.811438560E0;9.824601437E0
1.504770000E-1;4.890156984E-1;8.499415964E-2;9.835380554E0;9.847896781E0
1.524737190E-1;4.938040972E-1;8.499415964E-2;9.825803757E0;9.838571337E0
1.544704380E-1;5.129576921E-1;8.978256583E-2;9.835380554E0;9.849157180E0
1.564671570E-1;4.890156984E-1;9.457096457E-2;9.825803757E0;9.838419562E0
1.584638750E-1;4.985924959E-1;8.978256583E-2;9.830592155E0;9.843637413E0
1.604605940E-1;4.794389009E-1;9.457096457E-2;9.811438560E0;9.823600763E0
1.624573130E-1;4.985924959E-1;8.978256583E-2;9.835380554E0;9.848419469E0
1.644540320E-1;5.081692934E-1;8.978256583E-2;9.830592155E0;9.844127136E0
1.664507500E-1;5.129576921E-1;9.457096457E-2;9.825803757E0;9.839638648E0
1.684474690E-1;4.938040972E-1;7.541735470E-2;9.816226959E0;9.828928832E0
1.704441880E-1;4.985924959E-1;9.457096457E-2;9.811438560E0;9.824554177E0
1.724409070E-1;4.890156984E-1;9.457096457E-2;9.821015358E0;9.833637307E0
1.744376250E-1;4.938040972E-1;1.041477770E-1;9.811438560E0;9.824409187E0
1.764343440E-1;5.129576921E-1;8.499415964E-2;9.825803757E0;9.839551263E0
1.784310630E-1;5.033808947E-1;1.041477770E-1;9.816226959E0;9.829677045E0
1.804277820E-1;4.842272997E-1;9.935937077E-2;9.825803757E0;9.838229913E0
1.824245000E-1;4.985924959E-1;7.062894851E-2;9.830592155E0;9.843481348E0
1.844212190E-1;4.890156984E-1;8.978256583E-2;9.825803757E0;9.838374700E0
1.864179380E-1;5.129576921E-1;9.457096457E-2;9.821015358E0;9.834856985E0
1.884146570E-1;4.938040972E-1;8.020575345E-2;9.835380554E0;9.848095557E0
1.904113750E-1;4.938040972E-1;8.499415964E-2;9.840168953E0;9.852917919E0
1.924080940E-1;4.938040972E-1;8.020575345E-2;9.825803757E0;9.838531136E0
1.944048130E-1;4.938040972E-1;9.457096457E-2;9.821015358E0;9.833876591E0
1.964015320E-1;4.890156984E-1;7.541735470E-2;9.811438560E0;9.823907102E0
1.983982500E-1;4.842272997E-1;1.041477770E-1;9.811438560E0;9.823932485E0
2.003949690E-1;5.033808947E-1;9.457096457E-2;9.821015358E0;9.834362138E0
2.023916880E-1;4.938040972E-1;1.089361757E-1;9.816226959E0;9.829243170E0
2.043884070E-1;4.985924959E-1;8.020575345E-2;9.816226959E0;9.829208470E0
2.063851250E-1;5.033808947E-1;1.041477770E-1;9.825803757E0;9.839240751E0
2.083818440E-1;4.985924959E-1;8.499415964E-2;9.835380554E0;9.848376979E0
2.103786150E-1;4.938040972E-1;8.978256583E-2;9.797073364E0;9.809920994E0
2.123753860E-1;5.081692934E-1;1.089361757E-1;9.816226959E0;9.829975322E0
2.143721570E-1;4.985924959E-1;8.499415964E-2;9.825803757E0;9.838812832E0
2.163689270E-1;5.081692934E-1;8.020575345E-2;9.821015358E0;9.834480752E0
2.183656980E-1;4.985924959E-1;9.457096457E-2;9.830592155E0;9.843682252E0
2.203624690E-1;4.938040972E-1;9.935937077E-2;9.825803757E0;9.838705923E0
2.223592400E-1;4.842272997E-1;8.978256583E-2;9.816226959E0;9.828573076E0
2.243560110E-1;4.890156984E-1;9.457096457E-2;9.825803757E0;9.838419562E0
2.263527820E-1;4.985924959E-1;8.499415964E-2;9.821015358E0;9.834030768E0
2.283495520E-1;5.033808947E-1;9.935937077E-2;9.821015358E0;9.834409350E0
2.303463230E-1;4.938040972E-1;9.457096457E-2;9.811438560E0;9.824312331E0
2.323430940E-1;4.938040972E-1;8.978256583E-2;9.811438560E0;9.824267404E0
2.343398650E-1;4.890156984E-1;8.499415964E-2;9.816226959E0;9.828767577E0
2.363366360E-1;5.129576921E-1;8.978256583E-2;9.816226959E0;9.830030428E0
2.383334070E-1;5.033808947E-1;8.499415964E-2;9.816226959E0;9.829492767E0
2.403301770E-1;4.938040972E-1;8.499415964E-2;9.821015358E0;9.833789156E0
2.423269480E-1;4.890156984E-1;1.041477770E-1;9.821015358E0;9.833734071E0
2.443237190E-1;5.081692934E-1;9.457096457E-2;9.811438560E0;9.825044851E0
2.463204900E-1;4.938040972E-1;9.935937077E-2;9.825803757E0;9.838705923E0
2.483172610E-1;4.890156984E-1;1.041477770E-1;9.821015358E0;9.833734071E0
2.503140320E-1;5.033808947E-1;9.457096457E-2;9.825803757E0;9.839144041E0
2.523108020E-1;4.938040972E-1;1.089361757E-1;9.830592155E0;9.843589371E0
2.543075730E-1;4.890156984E-1;1.041477770E-1;9.821015358E0;9.833734071E0
2.563043440E-1;4.890156984E-1;1.041477770E-1;9.825803757E0;9.838516279E0
2.583011150E-1;4.890156984E-1;9.935937077E-2;9.825803757E0;9.838466756E0
2.602978860E-1;4.985924959E-1;8.020575345E-2;9.816226959E0;9.829208470E0
2.622946570E-1;4.746504724E-1;9.935937077E-2;9.821015358E0;9.832980627E0
2.642914270E-1;5.033808947E-1;1.137245819E-1;9.801861763E0;9.815437821E0
2.662881980E-1;4.938040972E-1;9.935937077E-2;9.825803757E0;9.838705923E0
2.682849690E-1;4.985924959E-1;8.978256583E-2;9.821015358E0;9.834073319E0
2.702817400E-1;5.033808947E-1;8.978256583E-2;9.806650162E0;9.819971519E0
2.722785110E-1;4.938040972E-1;1.089361757E-1;9.830592155E0;9.843589371E0
2.742752820E-1;4.938040972E-1;8.978256583E-2;9.806650162E0;9.819485261E0
2.762720520E-1;4.890156984E-1;8.499415964E-2;9.830592155E0;9.843114471E0
2.782688230E-1;5.033808947E-1;1.041477770E-1;9.821015358E0;9.834458894E0
2.802655940E-1;4.890156984E-1;9.935937077E-2;9.825803757E0;9.838466756E0
2.822623650E-1;5.033808947E-1;9.457096457E-2;9.821015358E0;9.834362138E0
2.842590840E-1;5.129576921E-1;9.457096457E-2;9.816226959E0;9.830075329E0
2.862558020E-1;4.985924959E-1;9.457096457E-2;9.840168953E0;9.853246326E0
2.882525210E-1;4.842272997E-1;8.978256583E-2;9.825803757E0;9.838137855E0
2.902492400E-1;5.129576921E-1;1.041477770E-1;9.835380554E0;9.849298604E0
2.922459590E-1;4.985924959E-1;9.935937077E-2;9.825803757E0;9.838947415E0
2.942426770E-1;4.938040972E-1;1.137245819E-1;9.806650162E0;9.819733355E0
2.962393960E-1;5.081692934E-1;8.978256583E-2;9.816226959E0;9.829781720E0
2.982361150E-1;5.081692934E-1;8.978256583E-2;9.821015358E0;9.834563519E0
3.002328340E-1;5.081692934E-1;7.541735470E-2;9.816226959E0;9.829661008E0
3.022295520E-1;4.938040972E-1;7.541735470E-2;9.816226959E0;9.828928832E0
3.042262710E-1;4.938040972E-1;8.978256583E-2;9.816226959E0;9.829049553E0
3.062229900E-1;4.890156984E-1;9.457096457E-2;9.806650162E0;9.819290576E0
3.082197090E-1;4.985924959E-1;8.978256583E-2;9.830592155E0;9.843637413E0
3.102164270E-1;4.985924959E-1;8.978256583E-2;9.816226959E0;9.829291282E0
3.122131460E-1;5.081692934E-1;8.499415964E-2;9.811438560E0;9.824957337E0
3.142098650E-1;5.081692934E-1;8.978256583E-2;9.840168953E0;9.853690779E0
3.162065840E-1;4.842272997E-1;8.978256583E-2;9.816226959E0;9.828573076E0
3.182033020E-1;4.794389009E-1;9.457096457E-2;9.821015358E0;9.833165716E0
3.202000210E-1;4.890156984E-1;8.020575345E-2;9.821015358E0;9.833509647E0
3.221967400E-1;4.938040972E-1;9.935937077E-2;9.816226959E0;9.829141696E0
3.241934590E-1;4.985924959E-1;1.041477770E-1;9.835380554E0;9.848560904E0
3.261901770E-1;4.985924959E-1;8.978256583E-2;9.821015358E0;9.834073319E0
3.281868960E-1;5.033808947E-1;1.041477770E-1;9.821015358E0;9.834458894E0
3.301836150E-1;4.938040972E-1;8.020575345E-2;9.840168953E0;9.852877776E0
3.321803340E-1;4.890156984E-1;9.457096457E-2;9.830592155E0;9.843201824E0
3.341770520E-1;4.890156984E-1;9.457096457E-2;9.811438560E0;9.824072814E0
3.361737710E-1;4.938040972E-1;8.978256583E-2;9.830592155E0;9.843396036E0
3.381704900E-1;4.890156984E-1;9.457096457E-2;9.835380554E0;9.847984092E0
3.401672090E-1;4.842272997E-1;9.935937077E-2;9.825803757E0;9.838229913E0
3.421639270E-1;4.890156984E-1;8.978256583E-2;9.821015358E0;9.833592422E0
3.441606460E-1;5.081692934E-1;9.457096457E-2;9.816226959E0;9.829826622E0
3.461573650E-1;5.129576921E-1;8.978256583E-2;9.816226959E0;9.830030428E0
3.481540840E-1;4.938040972E-1;9.457096457E-2;9.825803757E0;9.838658731E0
3.501508020E-1;4.985924959E-1;9.935937077E-2;9.811438560E0;9.824601437E0
3.521475210E-1;4.698620737E-1;8.020575345E-2;9.825803757E0;9.837358527E0
3.541442400E-1;5.129576921E-1;8.978256583E-2;9.816226959E0;9.830030428E0
3.561409590E-1;4.985924959E-1;8.499415964E-2;9.825803757E0;9.838812832E0
3.581376770E-1;4.842272997E-1;9.457096457E-2;9.830592155E0;9.842965096E0
3.601343960E-1;5.081692934E-1;9.457096457E-2;9.825803757E0;9.839390183E0
3.621311150E-1;4.890156984E-1;8.978256583E-2;9.821015358E0;9.833592422E0
3.641278340E-1;4.794389009E-1;8.020575345E-2;9.816226959E0;9.828255508E0
3.661245520E-1;5.033808947E-1;8.978256583E-2;9.830592155E0;9.843881113E0
3.681212710E-1;4.985924959E-1;8.499415964E-2;9.825803757E0;9.838812832E0
3.701179900E-1;4.938040972E-1;8.020575345E-2;9.806650162E0;9.819402367E0
3.721147090E-1;4.938040972E-1;7.541735470E-2;9.811438560E0;9.824146624E0
3.741114270E-1;4.985924959E-1;1.089361757E-1;9.825803757E0;9.839048787E0
3.761081460E-1;4.890156984E-1;8.499415964E-2;9.825803757E0;9.838332167E0
3.781048650E-1;5.033808947E-1;9.457096457E-2;9.825803757E0;9.839144041E0
3.801015840E-1;4.890156984E-1;8.978256583E-2;9.821015358E0;9.833592422E0
3.820983020E-1;5.033808947E-1;7.541735470E-2;9.821015358E0;9.834196600E0
3.840950210E-1;4.985924959E-1;9.457096457E-2;9.821015358E0;9.834118202E0
3.860917400E-1;4.985924959E-1;1.041477770E-1;9.816226959E0;9.829432992E0
3.880884590E-1;4.698620737E-1;8.978256583E-2;9.825803757E0;9.837441270E0
3.900851770E-1;4.842272997E-1;8.978256583E-2;9.825803757E0;9.838137855E0
3.920818960E-1;4.890156984E-1;8.978256583E-2;9.806650162E0;9.819245626E0
3.940786150E-1;5.033808947E-1;8.978256583E-2;9.835380554E0;9.848663050E0
3.960753340E-1;4.938040972E-1;8.499415964E-2;9.835380554E0;9.848135719E0
3.980720520E-1;4.842272997E-1;7.062894851E-2;9.825803757E0;9.837981703E0
4.000687710E-1;4.938040972E-1;9.935937077E-2;9.825803757E0;9.838705923E0
4.020654900E-1;5.033808947E-1;1.089361757E-1;9.821015358E0;9.834510770E0
4.040622090E-1;4.985924959E-1;8.020575345E-2;9.830592155E0;9.843554722E0
4.060589270E-1;4.985924959E-1;9.935937077E-2;9.797073364E0;9.810255515E0
4.080556460E-1;4.938040972E-1;9.935937077E-2;9.821015358E0;9.833923807E0
4.100523650E-1;4.938040972E-1;8.978256583E-2;9.821015358E0;9.833831708E0
4.120490840E-1;4.938040972E-1;9.935937077E-2;9.806650162E0;9.819577494E0
4.140458020E-1;5.033808947E-1;8.978256583E-2;9.830592155E0;9.843881113E0
4.160425210E-1;4.938040972E-1;7.541735470E-2;9.821015358E0;9.833711045E0
4.180392400E-1;4.938040972E-1;8.978256583E-2;9.825803757E0;9.838613869E0
4.200359590E-1;5.033808947E-1;9.935937077E-2;9.825803757E0;9.839191231E0
4.220326770E-1;4.985924959E-1;9.457096457E-2;9.821015358E0;9.834118202E0
4.240293960E-1;5.033808947E-1;8.978256583E-2;9.821015358E0;9.834317256E0
4.260261150E-1;4.842272997E-1;8.499415964E-2;9.830592155E0;9.842877740E0
4.280228860E-1;4.985924959E-1;7.541735470E-2;9.821015358E0;9.833952660E0
4.300196570E-1;4.938040972E-1;8.020575345E-2;9.811438560E0;9.824184550E0
4.320164270E-1;4.842272997E-1;8.499415964E-2;9.816226959E0;9.828530501E0
4.340131980E-1;4.842272997E-1;8.978256583E-2;9.825803757E0;9.838137855E0
4.360099690E-1;4.842272997E-1;8.499415964E-2;9.825803757E0;9.838095321E0
4.380067400E-1;4.890156984E-1;8.978256583E-2;9.825803757E0;9.838374700E0
4.400035110E-1;4.890156984E-1;9.935937077E-2;9.835380554E0;9.848031239E0
4.420002820E-1;4.938040972E-1;8.978256583E-2;9.835380554E0;9.848178209E0
4.439970520E-1;4.985924959E-1;8.020575345E-2;9.816226959E0;9.829208470E0
4.459938230E-1;5.033808947E-1;8.020575345E-2;9.825803757E0;9.839016453E0
4.479905940E-1;4.985924959E-1;9.935937077E-2;9.821015358E0;9.834165416E0
4.499873650E-1;5.081692934E-1;8.020575345E-2;9.821015358E0;9.834480752E0
4.519841360E-1;4.890156984E-1;9.935937077E-2;9.797073364E0;9.809773450E0
4.539809070E-1;5.129576921E-1;9.935937077E-2;9.801861763E0;9.815777702E0
4.559776770E-1;4.985924959E-1;8.978256583E-2;9.811438560E0;9.824509250E0
4.579744480E-1;4.985924959E-1;9.457096457E-2;9.816226959E0;9.829336186E0
4.599712190E-1;4.842272997E-1;8.978256583E-2;9.844957352E0;9.857267484E0
4.619679900E-1;4.985924959E-1;8.499415964E-2;9.821015358E0;9.834030768E0
4.639647610E-1;4.938040972E-1;9.935937077E-2;9.816226959E0;9.829141696E0
4.659615320E-1;4.794389009E-1;1.041477770E-1;9.825803757E0;9.838044922E0
4.679583020E-1;4.985924959E-1;8.978256583E-2;9.816226959E0;9.829291282E0
4.699550730E-1;4.794389009E-1;9.457096457E-2;9.816226959E0;9.828383236E0
4.719518440E-1;5.081692934E-1;9.457096457E-2;9.801861763E0;9.815481329E0
4.739486150E-1;5.081692934E-1;8.978256583E-2;9.821015358E0;9.834563519E0
4.759453860E-1;4.938040972E-1;9.457096457E-2;9.835380554E0;9.848223028E0
4.779421570E-1;4.938040972E-1;8.978256583E-2;9.821015358E0;9.833831708E0
4.799389270E-1;5.081692934E-1;8.499415964E-2;9.825803757E0;9.839302796E0
4.819356980E-1;5.081692934E-1;9.935937077E-2;9.825803757E0;9.839437371E0
4.839324690E-1;4.938040972E-1;8.978256583E-2;9.821015358E0;9.833831708E0
4.859292400E-1;4.985924959E-1;8.499415964E-2;9.825803757E0;9.838812832E0
4.879260110E-1;4.890156984E-1;9.935937077E-2;9.816226959E0;9.828902296E0
4.899227820E-1;5.033808947E-1;9.457096457E-2;9.816226959E0;9.829580241E0
4.919195520E-1;4.842272997E-1;9.457096457E-2;9.821015358E0;9.833400348E0
4.939163230E-1;4.985924959E-1;8.978256583E-2;9.825803757E0;9.838855363E0
4.959130940E-1;4.985924959E-1;8.499415964E-2;9.816226959E0;9.829248710E0
4.979098650E-1;5.033808947E-1;8.978256583E-2;9.806650162E0;9.819971519E0
4.999066360E-1;4.938040972E-1;9.935937077E-2;9.830592155E0;9.843488045E0
5.019034070E-1;4.938040972E-1;8.499415964E-2;9.825803757E0;9.838571337E0
5.039001250E-1;4.938040972E-1;8.978256583E-2;9.825803757E0;9.838613869E0
5.058968440E-1;4.985924959E-1;9.457096457E-2;9.816226959E0;9.829336186E0
5.078935630E-1;4.985924959E-1;9.457096457E-2;9.816226959E0;9.829336186E0
5.098902820E-1;5.033808947E-1;9.457096457E-2;9.835380554E0;9.848707866E0
5.118870000E-1;4.938040972E-1;8.499415964E-2;9.816226959E0;9.829006980E0
5.138837190E-1;4.890156984E-1;8.499415964E-2;9.821015358E0;9.833549869E0
5.158804380E-1;4.890156984E-1;8.499415964E-2;9.821015358E0;9.833549869E0
5.178771570E-1;4.938040972E-1;7.541735470E-2;9.825803757E0;9.838493265E0
5.198738750E-1;5.129576921E-1;8.499415964E-2;9.816226959E0;9.829987859E0
5.218705940E-1;4.890156984E-1;1.089361757E-1;9.816226959E0;9.829003772E0
5.238673130E-1;5.129576921E-1;8.499415964E-2;9.816226959E0;9.829987859E0
5.258640320E-1;4.938040972E-1;8.499415964E-2;9.821015358E0;9.833789156E0
5.278607500E-1;4.794389009E-1;1.137245819E-1;9.816226959E0;9.828586198E0
5.298574690E-1;4.842272997E-1;8.020575345E-2;9.825803757E0;9.838055118E0
5.318541880E-1;4.938040972E-1;8.499415964E-2;9.835380554E0;9.848135719E0
5.338509070E-1;4.985924959E-1;8.978256583E-2;9.825803757E0;9.838855363E0
5.358476250E-1;4.938040972E-1;8.020575345E-2;9.825803757E0;9.838531136E0
5.378443440E-1;4.938040972E-1;8.499415964E-2;9.811438560E0;9.824224810E0
5.398410630E-1;4.985924959E-1;7.062894851E-2;9.821015358E0;9.833917103E0
5.418377820E-1;4.985924959E-1;8.978256583E-2;9.816226959E0;9.829291282E0
5.438345000E-1;4.985924959E-1;9.457096457E-2;9.816226959E0;9.829336186E0
5.458312190E-1;5.033808947E-1;8.020575345E-2;9.825803757E0;9.839016453E0
5.478279380E-1;4.890156984E-1;7.062894851E-2;9.821015358E0;9.833436198E0
5.498246570E-1;4.938040972E-1;9.935937077E-2;9.830592155E0;9.843488045E0
5.518213750E-1;4.938040972E-1;9.935937077E-2;9.825803757E0;9.838705923E0
5.538180940E-1;4.985924959E-1;8.499415964E-2;9.835380554E0;9.848376979E0
5.558148130E-1;5.177460909E-1;8.499415964E-2;9.816226959E0;9.830238895E0
5.578115320E-1;4.890156984E-1;8.978256583E-2;9.806650162E0;9.819245626E0
5.598082500E-1;5.081692934E-1;8.020575345E-2;9.821015358E0;9.834480752E0
5.618049690E-1;5.033808947E-1;8.978256583E-2;9.830592155E0;9.843881113E0
5.638016880E-1;4.650736749E-1;6.584054977E-2;9.825803757E0;9.837024345E0
5.657984070E-1;4.985924959E-1;8.978256583E-2;9.830592155E0;9.843637413E0
5.677951250E-1;4.842272997E-1;8.020575345E-2;9.816226959E0;9.828490258E0
5.697918440E-1;5.033808947E-1;9.457096457E-2;9.835380554E0;9.848707866E0
5.717885630E-1;5.081692934E-1;9.457096457E-2;9.821015358E0;9.834608399E0
5.737852820E-1;4.938040972E-1;8.499415964E-2;9.811438560E0;9.824224810E0
5.757820000E-1;4.890156984E-1;1.041477770E-1;9.830592155E0;9.843298494E0
5.777787190E-1;4.794389009E-1;9.935937077E-2;9.825803757E0;9.837995396E0
5.797754380E-1;4.985924959E-1;8.978256583E-2;9.816226959E0;9.829291282E0
5.817721570E-1;5.033808947E-1;9.935937077E-2;9.825803757E0;9.839191231E0
5.837688750E-1;5.033808947E-1;9.935937077E-2;9.816226959E0;9.829627476E0
5.857655940E-1;4.746504724E-1;1.041477770E-1;9.806650162E0;9.818682561E0
5.877623130E-1;4.985924959E-1;9.457096457E-2;9.811438560E0;9.824554177E0
5.897590320E-1;4.842272997E-1;7.541735470E-2;9.821015358E0;9.833234794E0
5.917557500E-1;5.081692934E-1;8.020575345E-2;9.825803757E0;9.839262597E0
5.937524690E-1;4.842272997E-1;9.935937077E-2;9.821015358E0;9.833447566E0
5.957491880E-1;4.985924959E-1;9.457096457E-2;9.821015358E0;9.834118202E0
5.977459070E-1;4.890156984E-1;8.499415964E-2;9.816226959E0;9.828767577E0
5.997426250E-1;4.890156984E-1;9.457096457E-2;9.825803757E0;9.838419562E0
6.017393440E-1;4.938040972E-1;8.978256583E-2;9.825803757E0;9.838613869E0
6.037360630E-1;4.890156984E-1;8.499415964E-2;9.825803757E0;9.838332167E0
6.057327820E-1;5.033808947E-1;8.499415964E-2;9.821015358E0;9.834274706E0
6.077295000E-1;4.938040972E-1;9.457096457E-2;9.821015358E0;9.833876591E0
6.097262190E-1;4.985924959E-1;8.499415964E-2;9.816226959E0;9.829248710E0
6.117229380E-1;4.938040972E-1;9.935937077E-2;9.840168953E0;9.853052308E0
6.137196570E-1;5.033808947E-1;9.935937077E-2;9.830592155E0;9.843973117E0
6.157163750E-1;5.033808947E-1;8.499415964E-2;9.825803757E0;9.839056652E0
6.177130940E-1;4.890156984E-1;8.499415964E-2;9.825803757E0;9.838332167E0
6.197098130E-1;4.985924959E-1;1.041477770E-1;9.821015358E0;9.834214961E0
6.217065320E-1;5.033808947E-1;8.499415964E-2;9.821015358E0;9.834274706E0
6.237032500E-1;4.985924959E-1;8.499415964E-2;9.825803757E0;9.838812832E0
6.256999690E-1;4.938040972E-1;8.020575345E-2;9.825803757E0;9.838531136E0
6.276966880E-1;4.890156984E-1;9.935937077E-2;9.825803757E0;9.838466756E0
6.296934070E-1;4.985924959E-1;7.062894851E-2;9.825803757E0;9.838699222E0
6.316901250E-1;4.938040972E-1;9.457096457E-2;9.825803757E0;9.838658731E0
6.336868440E-1;4.890156984E-1;8.978256583E-2;9.835380554E0;9.847939272E0
6.356835630E-1;5.129576921E-1;8.978256583E-2;9.816226959E0;9.830030428E0
6.376802820E-1;4.985924959E-1;8.499415964E-2;9.835380554E0;9.848376979E0
6.396770520E-1;5.081692934E-1;9.457096457E-2;9.835380554E0;9.848953769E0
6.416738230E-1;5.177460909E-1;8.978256583E-2;9.821015358E0;9.835063019E0
6.436705940E-1;4.938040972E-1;8.499415964E-2;9.825803757E0;9.838571337E0
6.456673650E-1;4.842272997E-1;9.457096457E-2;9.825803757E0;9.838182719E0
6.476641360E-1;4.938040972E-1;8.978256583E-2;9.801861763E0;9.814703124E0
6.496609070E-1;4.938040972E-1;1.041477770E-1;9.821015358E0;9.833973353E0
6.516576770E-1;4.985924959E-1;9.457096457E-2;9.840168953E0;9.853246326E0
6.536544480E-1;4.890156984E-1;8.978256583E-2;9.821015358E0;9.833592422E0
6.556512190E-1;4.938040972E-1;9.935937077E-2;9.825803757E0;9.838705923E0
6.576479900E-1;4.890156984E-1;9.457096457E-2;9.821015358E0;9.833637307E0
6.596447610E-1;4.985924959E-1;8.978256583E-2;9.830592155E0;9.843637413E0
6.616415320E-1;5.033808947E-1;8.499415964E-2;9.821015358E0;9.834274706E0
6.636383020E-1;4.938040972E-1;8.499415964E-2;9.825803757E0;9.838571337E0
6.656350730E-1;5.033808947E-1;8.020575345E-2;9.821015358E0;9.834234487E0
6.676318440E-1;4.938040972E-1;8.978256583E-2;9.816226959E0;9.829049553E0
6.696286150E-1;4.938040972E-1;8.978256583E-2;9.816226959E0;9.829049553E0
6.716253860E-1;4.938040972E-1;8.978256583E-2;9.816226959E0;9.829049553E0
6.736221570E-1;4.890156984E-1;9.457096457E-2;9.816226959E0;9.828855057E0
6.756189270E-1;5.081692934E-1;8.978256583E-2;9.811438560E0;9.824999927E0
6.776156980E-1;4.938040972E-1;8.978256583E-2;9.835380554E0;9.848178209E0
6.796124690E-1;4.890156984E-1;8.978256583E-2;9.825803757E0;9.838374700E0
6.816092400E-1;4.985924959E-1;8.978256583E-2;9.811438560E0;9.824509250E0
6.836060110E-1;4.938040972E-1;9.935937077E-2;9.811438560E0;9.824359592E0
6.856027820E-1;4.938040972E-1;8.020575345E-2;9.821015358E0;9.833748935E0
6.875995520E-1;5.033808947E-1;9.457096457E-2;9.830592155E0;9.843925951E0
6.895963230E-1;4.938040972E-1;8.499415964E-2;9.821015358E0;9.833789156E0
6.915930940E-1;4.842272997E-1;9.457096457E-2;9.825803757E0;9.838182719E0
6.935898650E-1;4.794389009E-1;9.935937077E-2;9.821015358E0;9.833212934E0
6.955866360E-1;4.842272997E-1;1.089361757E-1;9.816226959E0;9.828766702E0
6.975834070E-1;4.985924959E-1;9.457096457E-2;9.830592155E0;9.843682252E0
6.995801770E-1;4.746504724E-1;8.499415964E-2;9.825803757E0;9.837628604E0
7.015769480E-1;5.033808947E-1;8.978256583E-2;9.825803757E0;9.839099181E0
7.035737190E-1;5.081692934E-1;8.978256583E-2;9.806650162E0;9.820218141E0
7.055704900E-1;4.890156984E-1;1.041477770E-1;9.816226959E0;9.828951868E0
7.075672610E-1;5.081692934E-1;9.457096457E-2;9.830592155E0;9.844171973E0
7.095640320E-1;5.033808947E-1;9.457096457E-2;9.825803757E0;9.839144041E0
7.115608020E-1;4.794389009E-1;8.978256583E-2;9.816226959E0;9.828338328E0
7.135575730E-1;5.033808947E-1;9.457096457E-2;9.806650162E0;9.820016466E0
7.155543440E-1;4.985924959E-1;8.978256583E-2;9.825803757E0;9.838855363E0
7.175510630E-1;4.842272997E-1;9.935937077E-2;9.840168953E0;9.852576992E0
7.195477820E-1;5.033808947E-1;8.020575345E-2;9.801861763E0;9.815106689E0
7.215445000E-1;4.938040972E-1;9.457096457E-2;9.825803757E0;9.838658731E0
7.235412190E-1;4.985924959E-1;8.978256583E-2;9.825803757E0;9.838855363E0
7.255379380E-1;4.985924959E-1;9.457096457E-2;9.806650162E0;9.819772173E0
7.275346570E-1;4.985924959E-1;9.457096457E-2;9.811438560E0;9.824554177E0
7.295313750E-1;4.794389009E-1;9.935937077E-2;9.821015358E0;9.833212934E0
7.315280940E-1;4.938040972E-1;8.020575345E-2;9.835380554E0;9.848095557E0
7.335248130E-1;4.890156984E-1;8.020575345E-2;9.811438560E0;9.823945029E0
7.355215320E-1;5.033808947E-1;1.089361757E-1;9.816226959E0;9.829728945E0
7.375182500E-1;4.890156984E-1;8.978256583E-2;9.816226959E0;9.828810151E0
7.395149690E-1;4.985924959E-1;8.978256583E-2;9.825803757E0;9.838855363E0
7.415116880E-1;4.890156984E-1;8.978256583E-2;9.825803757E0;9.838374700E0
7.435084070E-1;5.033808947E-1;8.978256583E-2;9.821015358E0;9.834317256E0
7.455051250E-1;4.842272997E-1;1.089361757E-1;9.821015358E0;9.833548995E0
7.475018440E-1;4.890156984E-1;9.457096457E-2;9.816226959E0;9.828855057E0
7.494985630E-1;4.890156984E-1;9.935937077E-2;9.821015358E0;9.833684523E0
7.514952820E-1;5.081692934E-1;9.457096457E-2;9.835380554E0;9.848953769E0
7.534920000E-1;4.890156984E-1;9.457096457E-2;9.816226959E0;9.828855057E0
7.554887190E-1;4.938040972E-1;9.457096457E-2;9.816226959E0;9.829094458E0
7.574854380E-1;4.938040972E-1;9.457096457E-2;9.816226959E0;9.829094458E0
7.594821570E-1;4.985924959E-1;8.978256583E-2;9.825803757E0;9.838855363E0
7.614788750E-1;4.890156984E-1;8.020575345E-2;9.816226959E0;9.828727335E0
7.634755940E-1;4.985924959E-1;8.978256583E-2;9.821015358E0;9.834073319E0
7.654723130E-1;4.842272997E-1;8.978256583E-2;9.830592155E0;9.842920253E0
7.674690320E-1;4.938040972E-1;9.457096457E-2;9.816226959E0;9.829094458E0
7.694657500E-1;4.985924959E-1;1.041477770E-1;9.821015358E0;9.834214961E0
7.714624690E-1;4.842272997E-1;8.020575345E-2;9.830592155E0;9.842837557E0
7.734591880E-1;5.033808947E-1;9.457096457E-2;9.811438560E0;9.824798350E0
7.754559070E-1;4.938040972E-1;1.041477770E-1;9.816226959E0;9.829191267E0
7.774526250E-1;4.985924959E-1;8.499415964E-2;9.811438560E0;9.824466658E0
7.794493440E-1;4.938040972E-1;9.935937077E-2;9.816226959E0;9.829141696E0
7.814460630E-1;4.985924959E-1;8.499415964E-2;9.825803757E0;9.838812832E0
7.834427820E-1;4.890156984E-1;9.935937077E-2;9.811438560E0;9.824120076E0
7.854395000E-1;5.033808947E-1;8.499415964E-2;9.801861763E0;9.815146986E0
7.874362190E-1;4.890156984E-1;8.978256583E-2;9.811438560E0;9.824027885E0
7.894329380E-1;5.033808947E-1;1.041477770E-1;9.816226959E0;9.829677045E0
7.914296570E-1;4.938040972E-1;1.041477770E-1;9.821015358E0;9.833973353E0
7.934263750E-1;4.938040972E-1;7.541735470E-2;9.816226959E0;9.828928832E0
7.954230940E-1;5.033808947E-1;9.457096457E-2;9.821015358E0;9.834362138E0
7.974198130E-1;4.985924959E-1;8.978256583E-2;9.825803757E0;9.838855363E0
7.994165320E-1;5.033808947E-1;1.041477770E-1;9.825803757E0;9.839240751E0
8.014132500E-1;4.890156984E-1;9.457096457E-2;9.830592155E0;9.843201824E0
8.034099690E-1;4.938040972E-1;9.935937077E-2;9.835380554E0;9.848270174E0
8.054066880E-1;4.985924959E-1;9.935937077E-2;9.835380554E0;9.848511431E0
8.074034070E-1;5.081692934E-1;9.457096457E-2;9.816226959E0;9.829826622E0
8.094001250E-1;5.033808947E-1;9.935937077E-2;9.821015358E0;9.834409350E0
8.113968440E-1;5.033808947E-1;8.499415964E-2;9.821015358E0;9.834274706E0
8.133935630E-1;4.794389009E-1;8.978256583E-2;9.830592155E0;9.842685848E0
8.153902820E-1;4.890156984E-1;7.541735470E-2;9.806650162E0;9.819124784E0
8.173870000E-1;4.938040972E-1;9.935937077E-2;9.821015358E0;9.833923807E0
8.193837190E-1;5.081692934E-1;1.041477770E-1;9.811438560E0;9.825141700E0
8.213804380E-1;4.985924959E-1;9.457096457E-2;9.816226959E0;9.829336186E0
8.233771570E-1;4.890156984E-1;9.457096457E-2;9.830592155E0;9.843201824E0
8.253738750E-1;4.985924959E-1;1.041477770E-1;9.816226959E0;9.829432992E0
8.273705940E-1;5.081692934E-1;1.089361757E-1;9.806650162E0;9.820411932E0
8.293673130E-1;4.890156984E-1;8.020575345E-2;9.816226959E0;9.828727335E0
8.313640320E-1;4.890156984E-1;8.978256583E-2;9.816226959E0;9.828810151E0
8.333607500E-1;4.890156984E-1;8.020575345E-2;9.806650162E0;9.819162730E0
8.353574690E-1;4.938040972E-1;1.089361757E-1;9.816226959E0;9.829243170E0
8.373541880E-1;5.033808947E-1;8.978256583E-2;9.821015358E0;9.834317256E0
8.393509070E-1;5.033808947E-1;8.978256583E-2;9.821015358E0;9.834317256E0
8.413476250E-1;5.081692934E-1;8.978256583E-2;9.821015358E0;9.834563519E0
8.433443960E-1;4.938040972E-1;8.978256583E-2;9.811438560E0;9.824267404E0
8.453411670E-1;4.842272997E-1;8.020575345E-2;9.825803757E0;9.838055118E0
8.473379380E-1;5.033808947E-1;9.935937077E-2;9.830592155E0;9.843973117E0
8.493347090E-1;4.938040972E-1;8.020575345E-2;9.835380554E0;9.848095557E0
8.513314790E-1;4.890156984E-1;9.457096457E-2;9.821015358E0;9.833637307E0
8.533282500E-1;4.890156984E-1;9.457096457E-2;9.821015358E0;9.833637307E0
8.553250210E-1;4.938040972E-1;9.935937077E-2;9.816226959E0;9.829141696E0
8.573217920E-1;4.842272997E-1;9.457096457E-2;9.811438560E0;9.823835624E0
8.593185630E-1;4.985924959E-1;1.041477770E-1;9.825803757E0;9.838996936E0
8.613153340E-1;5.033808947E-1;1.041477770E-1;9.811438560E0;9.824895201E0
8.633121040E-1;4.938040972E-1;8.499415964E-2;9.835380554E0;9.848135719E0
8.653088750E-1;5.033808947E-1;8.499415964E-2;9.830592155E0;9.843838604E0
8.673056460E-1;4.985924959E-1;9.457096457E-2;9.806650162E0;9.819772173E0
8.693024170E-1;4.985924959E-1;8.499415964E-2;9.801861763E0;9.814902572E0
8.712991880E-1;4.890156984E-1;9.457096457E-2;9.825803757E0;9.838419562E0
8.732959590E-1;5.033808947E-1;8.978256583E-2;9.835380554E0;9.848663050E0
8.752927290E-1;5.033808947E-1;8.978256583E-2;9.825803757E0;9.839099181E0
8.772895000E-1;5.033808947E-1;9.457096457E-2;9.816226959E0;9.829580241E0
8.792862710E-1;5.033808947E-1;9.457096457E-2;9.825803757E0;9.839144041E0
8.812830420E-1;5.033808947E-1;9.457096457E-2;9.821015358E0;9.834362138E0
8.832798130E-1;4.938040972E-1;1.041477770E-1;9.821015358E0;9.833973353E0
8.852765840E-1;5.033808947E-1;8.499415964E-2;9.825803757E0;9.839056652E0
8.872733540E-1;5.033808947E-1;9.935937077E-2;9.816226959E0;9.829627476E0
8.892701250E-1;5.033808947E-1;7.062894851E-2;9.816226959E0;9.829379049E0
8.912668960E-1;4.746504724E-1;8.978256583E-2;9.825803757E0;9.837671139E0
8.932636670E-1;4.842272997E-1;8.499415964E-2;9.816226959E0;9.828530501E0
8.952604380E-1;4.938040972E-1;9.457096457E-2;9.811438560E0;9.824312331E0
8.972572090E-1;4.985924959E-1;9.457096457E-2;9.811438560E0;9.824554177E0
8.992539790E-1;5.033808947E-1;8.499415964E-2;9.825803757E0;9.839056652E0
9.012507500E-1;4.938040972E-1;9.935937077E-2;9.830592155E0;9.843488045E0
9.032475210E-1;4.890156984E-1;9.935937077E-2;9.806650162E0;9.819337861E0
9.052442920E-1;5.033808947E-1;8.978256583E-2;9.825803757E0;9.839099181E0
9.072410630E-1;5.033808947E-1;8.978256583E-2;9.811438560E0;9.824753425E0
9.092378340E-1;4.985924959E-1;9.457096457E-2;9.821015358E0;9.834118202E0
9.112346040E-1;4.938040972E-1;1.041477770E-1;9.825803757E0;9.838755445E0
9.132313750E-1;4.890156984E-1;9.935937077E-2;9.830592155E0;9.843248994E0
9.152281460E-1;5.177460909E-1;8.978256583E-2;9.806650162E0;9.820718371E0
9.172249170E-1;4.938040972E-1;1.041477770E-1;9.821015358E0;9.833973353E0
9.192216880E-1;4.985924959E-1;8.499415964E-2;9.811438560E0;9.824466658E0
9.212184590E-1;4.938040972E-1;8.020575345E-2;9.830592155E0;9.843313343E0
9.232151770E-1;4.985924959E-1;9.935937077E-2;9.825803757E0;9.838947415E0
9.252118960E-1;4.985924959E-1;9.457096457E-2;9.825803757E0;9.838900224E0
9.272086150E-1;5.129576921E-1;8.499415964E-2;9.830592155E0;9.844332975E0
9.292053340E-1;5.081692934E-1;8.978256583E-2;9.816226959E0;9.829781720E0
9.312020520E-1;4.938040972E-1;8.020575345E-2;9.821015358E0;9.833748935E0
9.331987710E-1;4.890156984E-1;9.457096457E-2;9.825803757E0;9.838419562E0
9.351954900E-1;4.794389009E-1;8.978256583E-2;9.816226959E0;9.828338328E0
9.371922090E-1;4.890156984E-1;8.499415964E-2;9.811438560E0;9.823985290E0
9.391889270E-1;4.938040972E-1;8.978256583E-2;9.816226959E0;9.829049553E0
9.411856460E-1;4.985924959E-1;9.935937077E-2;9.811438560E0;9.824601437E0
9.431823650E-1;5.033808947E-1;8.978256583E-2;9.821015358E0;9.834317256E0
9.451790840E-1;4.890156984E-1;8.499415964E-2;9.825803757E0;9.838332167E0
9.471758020E-1;4.842272997E-1;9.457096457E-2;9.811438560E0;9.823835624E0
9.491725210E-1;4.842272997E-1;8.499415964E-2;9.821015358E0;9.833312908E0
9.511692400E-1;4.938040972E-1;1.041477770E-1;9.801861763E0;9.814845045E0
9.531659590E-1;4.842272997E-1;9.457096457E-2;9.801861763E0;9.814270924E0
9.551626770E-1;5.033808947E-1;1.041477770E-1;9.816226959E0;9.829677045E0
9.571593960E-1;4.938040972E-1;8.978256583E-2;9.816226959E0;9.829049553E0
9.591561150E-1;4.842272997E-1;8.499415964E-2;9.825803757E0;9.838095321E0
9.611528340E-1;4.985924959E-1;9.457096457E-2;9.821015358E0;9.834118202E0
9.631495520E-1;5.033808947E-1;8.020575345E-2;9.821015358E0;9.834234487E0
9.651462710E-1;5.033808947E-1;8.978256583E-2;9.825803757E0;9.839099181E0
9.671429900E-1;4.938040972E-1;8.499415964E-2;9.801861763E0;9.814660489E0
9.691397090E-1;4.985924959E-1;1.041477770E-1;9.821015358E0;9.834214961E0
9.711364270E-1;4.890156984E-1;8.978256583E-2;9.816226959E0;9.828810151E0
9.731331460E-1;4.985924959E-1;8.020575345E-2;9.806650162E0;9.819644333E0
9.751298650E-1;5.033808947E-1;9.457096457E-2;9.825803757E0;9.839144041E0
9.771265840E-1;5.081692934E-1;8.020575345E-2;9.821015358E0;9.834480752E0
9.791233020E-1;5.129576921E-1;9.457096457E-2;9.801861763E0;9.815730400E0
9.811200210E-1;4.938040972E-1;8.499415964E-2;9.816226959E0;9.829006980E0
9.831167400E-1;4.842272997E-1;8.978256583E-2;9.811438560E0;9.823790695E0
9.851134590E-1;4.842272997E-1;7.062894851E-2;9.830592155E0;9.842764177E0
9.871101770E-1;4.985924959E-1;9.457096457E-2;9.806650162E0;9.819772173E0
9.891068960E-1;4.985924959E-1;8.020575345E-2;9.830592155E0;9.843554722E0
9.911036150E-1;5.033808947E-1;9.457096457E-2;9.821015358E0;9.834362138E0
9.931003340E-1;4.985924959E-1;8.978256583E-2;9.821015358E0;9.834073319E0
9.950970520E-1;5.033808947E-1;9.457096457E-2;9.811438560E0;9.824798350E0
9.970937710E-1;4.890156984E-1;8.978256583E-2;9.816226959E0;9.828810151E0
9.990904900E-1;4.890156984E-1;9.935937077E-2;9.816226959E0;9.828902296E0
1.001087209E0;4.938040972E-1;7.062894851E-2;9.825803757E0;9.838457725E0
1.003083927E0;5.033808947E-1;8.978256583E-2;9.825803757E0;9.839099181E0
1.005080646E0;4.890156984E-1;7.062894851E-2;9.821015358E0;9.833436198E0
1.007077365E0;4.842272997E-1;8.978256583E-2;9.821015358E0;9.833355462E0
1.009074084E0;4.985924959E-1;8.978256583E-2;9.840168953E0;9.853201531E0
1.011070802E0;5.033808947E-1;1.041477770E-1;9.821015358E0;9.834458894E0
1.013067521E0;5.081692934E-1;8.978256583E-2;9.811438560E0;9.824999927E0
1.015064240E0;4.985924959E-1;9.935937077E-2;9.816226959E0;9.829383423E0
1.017060959E0;4.938040972E-1;8.978256583E-2;9.825803757E0;9.838613869E0
1.019057677E0;5.033808947E-1;9.935937077E-2;9.821015358E0;9.834409350E0
1.021054396E0;4.842272997E-1;9.457096457E-2;9.816226959E0;9.828617983E0
1.023051115E0;4.842272997E-1;9.935937077E-2;9.830592155E0;9.843012267E0
1.025047834E0;4.938040972E-1;8.978256583E-2;9.835380554E0;9.848178209E0
1.027044552E0;4.985924959E-1;9.935937077E-2;9.816226959E0;9.829383423E0
1.029041271E0;4.938040972E-1;8.020575345E-2;9.825803757E0;9.838531136E0
1.031037990E0;4.938040972E-1;8.978256583E-2;9.821015358E0;9.833831708E0
1.033034709E0;4.938040972E-1;9.457096457E-2;9.825803757E0;9.838658731E0
1.035031427E0;5.081692934E-1;8.499415964E-2;9.821015358E0;9.834520969E0
1.037028146E0;4.890156984E-1;9.935937077E-2;9.825803757E0;9.838466756E0
1.039024865E0;4.842272997E-1;8.020575345E-2;9.811438560E0;9.823707837E0
1.041021584E0;4.938040972E-1;1.041477770E-1;9.806650162E0;9.819627113E0
1.043018354E0;4.938040972E-1;9.935937077E-2;9.821015358E0;9.833923807E0
1.045015125E0;4.985924959E-1;1.041477770E-1;9.811438560E0;9.824651030E0
1.047011896E0;4.890156984E-1;1.041477770E-1;9.825803757E0;9.838516279E0
1.049008667E0;4.890156984E-1;8.020575345E-2;9.816226959E0;9.828727335E0
1.051005438E0;5.081692934E-1;9.457096457E-2;9.830592155E0;9.844171973E0
1.053002209E0;5.033808947E-1;8.499415964E-2;9.811438560E0;9.824710833E0
1.054998979E0;4.985924959E-1;9.457096457E-2;9.821015358E0;9.834118202E0
1.056995750E0;4.938040972E-1;9.457096457E-2;9.825803757E0;9.838658731E0
1.058992521E0;4.938040972E-1;8.499415964E-2;9.816226959E0;9.829006980E0
1.060989292E0;4.890156984E-1;8.978256583E-2;9.821015358E0;9.833592422E0
1.062986063E0;4.985924959E-1;9.457096457E-2;9.806650162E0;9.819772173E0
1.064982834E0;4.985924959E-1;8.978256583E-2;9.806650162E0;9.819727225E0
1.066979604E0;4.890156984E-1;1.041477770E-1;9.821015358E0;9.833734071E0
1.068976375E0;5.081692934E-1;8.978256583E-2;9.816226959E0;9.829781720E0
1.070973146E0;4.985924959E-1;8.020575345E-2;9.806650162E0;9.819644333E0
1.072969917E0;4.890156984E-1;9.457096457E-2;9.821015358E0;9.833637307E0
1.074966688E0;4.985924959E-1;8.978256583E-2;9.825803757E0;9.838855363E0
1.076963459E0;4.985924959E-1;8.499415964E-2;9.821015358E0;9.834030768E0
1.078960229E0;5.033808947E-1;9.457096457E-2;9.821015358E0;9.834362138E0
1.080957000E0;4.938040972E-1;9.457096457E-2;9.825803757E0;9.838658731E0
1.082953771E0;4.938040972E-1;7.062894851E-2;9.816226959E0;9.828893257E0
1.084950542E0;5.081692934E-1;1.041477770E-1;9.821015358E0;9.834705153E0
1.086947313E0;5.081692934E-1;8.978256583E-2;9.830592155E0;9.844127136E0
1.088944084E0;4.794389009E-1;1.041477770E-1;9.816226959E0;9.828480052E0
1.090940854E0;5.081692934E-1;8.978256583E-2;9.821015358E0;9.834563519E0
1.092937625E0;5.033808947E-1;9.935937077E-2;9.816226959E0;9.829627476E0
1.094934396E0;4.890156984E-1;8.978256583E-2;9.811438560E0;9.824027885E0
1.096931167E0;5.081692934E-1;8.978256583E-2;9.816226959E0;9.829781720E0
1.098927938E0;4.938040972E-1;8.978256583E-2;9.801861763E0;9.814703124E0
1.100924709E0;4.842272997E-1;9.457096457E-2;9.830592155E0;9.842965096E0
1.102921479E0;4.890156984E-1;1.041477770E-1;9.806650162E0;9.819387481E0
1.104918250E0;5.081692934E-1;9.935937077E-2;9.811438560E0;9.825092109E0
1.106915021E0;4.938040972E-1;8.020575345E-2;9.821015358E0;9.833748935E0
1.108911792E0;4.890156984E-1;8.020575345E-2;9.825803757E0;9.838291965E0
1.110908563E0;4.890156984E-1;1.089361757E-1;9.830592155E0;9.843350322E0
1.112905334E0;4.938040972E-1;9.457096457E-2;9.806650162E0;9.819530210E0
1.114902104E0;4.985924959E-1;8.978256583E-2;9.821015358E0;9.834073319E0
1.116898875E0;4.985924959E-1;1.089361757E-1;9.816226959E0;9.829484894E0
1.118895646E0;4.938040972E-1;9.457096457E-2;9.821015358E0;9.833876591E0
1.120892417E0;4.890156984E-1;9.457096457E-2;9.825803757E0;9.838419562E0
1.122889188E0;4.985924959E-1;8.978256583E-2;9.821015358E0;9.834073319E0
1.124885959E0;5.081692934E-1;8.020575345E-2;9.825803757E0;9.839262597E0
1.126882677E0;4.890156984E-1;9.457096457E-2;9.825803757E0;9.838419562E0
1.128879396E0;5.081692934E-1;1.089361757E-1;9.825803757E0;9.839538739E0
1.130876115E0;5.081692934E-1;8.978256583E-2;9.825803757E0;9.839345324E0
1.132872834E0;5.081692934E-1;9.457096457E-2;9.811438560E0;9.825044851E0
1.134869552E0;4.842272997E-1;7.541735470E-2;9.830592155E0;9.842799702E0
1.136866271E0;5.129576921E-1;8.020575345E-2;9.840168953E0;9.853856280E0
1.138862990E0;4.938040972E-1;8.499415964E-2;9.811438560E0;9.824224810E0
1.140859709E0;4.938040972E-1;8.499415964E-2;9.835380554E0;9.848135719E0
1.142856427E0;4.938040972E-1;7.541735470E-2;9.825803757E0;9.838493265E0
1.144853146E0;4.842272997E-1;9.457096457E-2;9.811438560E0;9.823835624E0
1.146849865E0;4.890156984E-1;8.978256583E-2;9.825803757E0;9.838374700E0
1.148846584E0;4.938040972E-1;9.457096457E-2;9.821015358E0;9.833876591E0
1.150843302E0;5.033808947E-1;9.457096457E-2;9.825803757E0;9.839144041E0
1.152840021E0;4.890156984E-1;9.457096457E-2;9.825803757E0;9.838419562E0
1.154836740E0;4.938040972E-1;8.499415964E-2;9.821015358E0;9.833789156E0
1.156833459E0;4.985924959E-1;9.935937077E-2;9.830592155E0;9.843729420E0
1.158830177E0;4.985924959E-1;8.978256583E-2;9.821015358E0;9.834073319E0
1.160826896E0;4.985924959E-1;7.541735470E-2;9.821015358E0;9.833952660E0
1.162823615E0;4.938040972E-1;8.499415964E-2;9.816226959E0;9.829006980E0
1.164820334E0;4.938040972E-1;9.935937077E-2;9.816226959E0;9.829141696E0
1.166817052E0;4.985924959E-1;8.499415964E-2;9.825803757E0;9.838812832E0
1.168813771E0;4.794389009E-1;7.541735470E-2;9.816226959E0;9.828217598E0
1.170810490E0;4.890156984E-1;8.978256583E-2;9.835380554E0;9.847939272E0
1.172807209E0;4.890156984E-1;9.935937077E-2;9.825803757E0;9.838466756E0
1.174803927E0;4.890156984E-1;9.457096457E-2;9.835380554E0;9.847984092E0
1.176800646E0;4.842272997E-1;1.041477770E-1;9.816226959E0;9.828714797E0
1.178797365E0;4.985924959E-1;8.978256583E-2;9.830592155E0;9.843637413E0
1.180794478E0;4.985924959E-1;9.457096457E-2;9.801861763E0;9.814990177E0
1.182791196E0;4.938040972E-1;8.499415964E-2;9.811438560E0;9.824224810E0
1.184787915E0;4.938040972E-1;9.457096457E-2;9.811438560E0;9.824312331E0
1.186784634E0;4.938040972E-1;8.020575345E-2;9.816226959E0;9.828966739E0
1.188781353E0;4.890156984E-1;9.457096457E-2;9.830592155E0;9.843201824E0
1.190778071E0;4.985924959E-1;8.978256583E-2;9.811438560E0;9.824509250E0
1.192774790E0;4.890156984E-1;9.935937077E-2;9.825803757E0;9.838466756E0
1.194771509E0;4.938040972E-1;8.978256583E-2;9.830592155E0;9.843396036E0
1.196768228E0;4.938040972E-1;9.457096457E-2;9.821015358E0;9.833876591E0
1.198764946E0;4.985924959E-1;8.978256583E-2;9.816226959E0;9.829291282E0
1.200761665E0;4.985924959E-1;8.499415964E-2;9.811438560E0;9.824466658E0
1.202758384E0;4.890156984E-1;8.978256583E-2;9.816226959E0;9.828810151E0
1.204755103E0;4.890156984E-1;8.020575345E-2;9.821015358E0;9.833509647E0
1.206751821E0;4.985924959E-1;9.935937077E-2;9.811438560E0;9.824601437E0
1.208748280E0;4.938040972E-1;8.499415964E-2;9.821015358E0;9.833789156E0
1.210744999E0;5.033808947E-1;8.978256583E-2;9.806650162E0;9.819971519E0
1.212741718E0;4.890156984E-1;9.935937077E-2;9.811438560E0;9.824120076E0
1.214738436E0;4.842272997E-1;9.457096457E-2;9.811438560E0;9.823835624E0
1.216735155E0;4.985924959E-1;1.089361757E-1;9.811438560E0;9.824702957E0
1.218731874E0;4.890156984E-1;8.978256583E-2;9.825803757E0;9.838374700E0
1.220728593E0;5.081692934E-1;8.978256583E-2;9.811438560E0;9.824999927E0
1.222725311E0;4.890156984E-1;9.935937077E-2;9.830592155E0;9.843248994E0
1.224722030E0;4.842272997E-1;1.089361757E-1;9.830592155E0;9.843113598E0
1.226718749E0;4.890156984E-1;1.041477770E-1;9.821015358E0;9.833734071E0
1.228715468E0;5.033808947E-1;8.978256583E-2;9.816226959E0;9.829535337E0
1.230712186E0;4.890156984E-1;9.457096457E-2;9.840168953E0;9.852766365E0
1.232708905E0;5.033808947E-1;8.499415964E-2;9.835380554E0;9.848620562E0
1.234705624E0;4.938040972E-1;9.457096457E-2;9.816226959E0;9.829094458E0
1.236702343E0;4.938040972E-1;8.978256583E-2;9.811438560E0;9.824267404E0
1.238699061E0;4.985924959E-1;9.457096457E-2;9.825803757E0;9.838900224E0
1.240695780E0;4.985924959E-1;9.457096457E-2;9.840168953E0;9.853246326E0
1.242692551E0;4.985924959E-1;9.457096457E-2;9.825803757E0;9.838900224E0
1.244689322E0;5.081692934E-1;9.935937077E-2;9.830592155E0;9.844219138E0
1.246686093E0;4.938040972E-1;8.978256583E-2;9.821015358E0;9.833831708E0
1.248682863E0;5.129576921E-1;9.935937077E-2;9.816226959E0;9.830122562E0
1.250679634E0;5.129576921E-1;9.935937077E-2;9.816226959E0;9.830122562E0
1.252676405E0;5.033808947E-1;9.935937077E-2;9.825803757E0;9.839191231E0
1.254673176E0;5.081692934E-1;8.978256583E-2;9.825803757E0;9.839345324E0
1.256669947E0;4.985924959E-1;9.457096457E-2;9.816226959E0;9.829336186E0
1.258666718E0;4.842272997E-1;8.978256583E-2;9.830592155E0;9.842920253E0
1.260663488E0;4.985924959E-1;8.499415964E-2;9.816226959E0;9.829248710E0
1.262660259E0;4.938040972E-1;8.978256583E-2;9.825803757E0;9.838613869E0
1.264657030E0;5.081692934E-1;8.020575345E-2;9.821015358E0;9.834480752E0
1.266653801E0;4.985924959E-1;9.935937077E-2;9.825803757E0;9.838947415E0
1.268650572E0;4.938040972E-1;9.457096457E-2;9.825803757E0;9.838658731E0
1.270647343E0;5.033808947E-1;8.978256583E-2;9.821015358E0;9.834317256E0
1.272644113E0;4.938040972E-1;1.041477770E-1;9.821015358E0;9.833973353E0
1.274640884E0;4.985924959E-1;8.499415964E-2;9.816226959E0;9.829248710E0
1.276637655E0;4.985924959E-1;9.935937077E-2;9.830592155E0;9.843729420E0
1.278634426E0;4.842272997E-1;8.978256583E-2;9.811438560E0;9.823790695E0
1.280631197E0;4.938040972E-1;9.457096457E-2;9.844957352E0;9.857787349E0
1.282627968E0;4.842272997E-1;8.020575345E-2;9.830592155E0;9.842837557E0
1.284624738E0;5.081692934E-1;8.020575345E-2;9.825803757E0;9.839262597E0
1.286621509E0;5.033808947E-1;9.457096457E-2;9.830592155E0;9.843925951E0
1.288618280E0;4.890156984E-1;9.935937077E-2;9.816226959E0;9.828902296E0
1.290615051E0;4.985924959E-1;8.978256583E-2;9.830592155E0;9.843637413E0
1.292611822E0;4.985924959E-1;1.041477770E-1;9.816226959E0;9.829432992E0
1.294608593E0;4.938040972E-1;8.020575345E-2;9.825803757E0;9.838531136E0
1.296605363E0;4.938040972E-1;8.499415964E-2;9.821015358E0;9.833789156E0
1.298602134E0;4.890156984E-1;9.935937077E-2;9.835380554E0;9.848031239E0
1.300598905E0;4.890156984E-1;1.041477770E-1;9.821015358E0;9.833734071E0
1.302595676E0;4.985924959E-1;9.457096457E-2;9.816226959E0;9.829336186E0
1.304592447E0;4.985924959E-1;9.457096457E-2;9.830592155E0;9.843682252E0
1.306589218E0;4.985924959E-1;7.541735470E-2;9.830592155E0;9.843516871E0
1.308585988E0;4.985924959E-1;8.978256583E-2;9.830592155E0;9.843637413E0
1.310582759E0;4.985924959E-1;9.457096457E-2;9.821015358E0;9.834118202E0
1.312579530E0;4.985924959E-1;8.978256583E-2;9.821015358E0;9.834073319E0
1.314576301E0;5.033808947E-1;7.541735470E-2;9.835380554E0;9.848542570E0
1.316573072E0;5.081692934E-1;9.457096457E-2;9.821015358E0;9.834608399E0
1.318569843E0;4.985924959E-1;8.978256583E-2;9.835380554E0;9.848419469E0
1.320566613E0;5.033808947E-1;9.457096457E-2;9.821015358E0;9.834362138E0
1.322563384E0;4.794389009E-1;9.457096457E-2;9.811438560E0;9.823600763E0
1.324560155E0;4.985924959E-1;8.978256583E-2;9.840168953E0;9.853201531E0
1.326556926E0;4.985924959E-1;9.935937077E-2;9.830592155E0;9.843729420E0
1.328553697E0;4.890156984E-1;9.457096457E-2;9.816226959E0;9.828855057E0
1.330550416E0;4.985924959E-1;9.457096457E-2;9.825803757E0;9.838900224E0
1.332547134E0;4.890156984E-1;8.020575345E-2;9.821015358E0;9.833509647E0
1.334543853E0;4.938040972E-1;8.020575345E-2;9.816226959E0;9.828966739E0
1.336540572E0;4.938040972E-1;8.978256583E-2;9.821015358E0;9.833831708E0
1.338537291E0;4.985924959E-1;9.457096457E-2;9.816226959E0;9.829336186E0
1.340534009E0;4.890156984E-1;9.935937077E-2;9.821015358E0;9.833684523E0
1.342530728E0;4.842272997E-1;9.935937077E-2;9.825803757E0;9.838229913E0
1.344527447E0;5.081692934E-1;8.499415964E-2;9.816226959E0;9.829739150E0
1.346524166E0;5.033808947E-1;9.457096457E-2;9.825803757E0;9.839144041E0
1.348520884E0;4.938040972E-1;8.499415964E-2;9.835380554E0;9.848135719E0
1.350517603E0;4.938040972E-1;8.978256583E-2;9.835380554E0;9.848178209E0
1.352514322E0;4.890156984E-1;8.499415964E-2;9.840168953E0;9.852679097E0
1.354511041E0;4.938040972E-1;9.457096457E-2;9.811438560E0;9.824312331E0
1.356507759E0;4.938040972E-1;8.978256583E-2;9.825803757E0;9.838613869E0
1.358504478E0;4.842272997E-1;8.978256583E-2;9.821015358E0;9.833355462E0
1.360501197E0;4.985924959E-1;8.978256583E-2;9.825803757E0;9.838855363E0
1.362497916E0;4.985924959E-1;7.541735470E-2;9.821015358E0;9.833952660E0
1.364494634E0;4.985924959E-1;8.499415964E-2;9.816226959E0;9.829248710E0
1.366491353E0;5.081692934E-1;1.041477770E-1;9.821015358E0;9.834705153E0
1.368488072E0;4.842272997E-1;8.020575345E-2;9.840168953E0;9.852402451E0
1.370484791E0;4.794389009E-1;8.978256583E-2;9.825803757E0;9.837903335E0
1.372481509E0;5.129576921E-1;8.499415964E-2;9.821015358E0;9.834769558E0
1.374478228E0;4.985924959E-1;9.457096457E-2;9.835380554E0;9.848464286E0
1.376474947E0;4.842272997E-1;8.499415964E-2;9.830592155E0;9.842877740E0
1.378471666E0;4.985924959E-1;8.978256583E-2;9.821015358E0;9.834073319E0
1.380468384E0;4.938040972E-1;1.041477770E-1;9.821015358E0;9.833973353E0
1.382465103E0;5.081692934E-1;8.978256583E-2;9.830592155E0;9.844127136E0
1.384461822E0;4.938040972E-1;8.978256583E-2;9.816226959E0;9.829049553E0
1.386458541E0;5.081692934E-1;8.978256583E-2;9.816226959E0;9.829781720E0
1.388455259E0;4.985924959E-1;8.499415964E-2;9.825803757E0;9.838812832E0
1.390451978E0;5.033808947E-1;8.978256583E-2;9.830592155E0;9.843881113E0
1.392448697E0;4.985924959E-1;8.978256583E-2;9.821015358E0;9.834073319E0
1.394445416E0;5.081692934E-1;1.137245819E-1;9.806650162E0;9.820466216E0
1.396442134E0;4.938040972E-1;9.935937077E-2;9.825803757E0;9.838705923E0
1.398438853E0;4.842272997E-1;9.457096457E-2;9.830592155E0;9.842965096E0
1.400435572E0;5.033808947E-1;9.935937077E-2;9.835380554E0;9.848755010E0
1.402432291E0;4.842272997E-1;9.935937077E-2;9.816226959E0;9.828665224E0
1.404429009E0;4.794389009E-1;9.457096457E-2;9.821015358E0;9.833165716E0
1.406425728E0;5.033808947E-1;8.499415964E-2;9.830592155E0;9.843838604E0
1.408422447E0;4.938040972E-1;8.978256583E-2;9.811438560E0;9.824267404E0
1.410419166E0;5.033808947E-1;8.499415964E-2;9.821015358E0;9.834274706E0
1.412415884E0;4.938040972E-1;9.457096457E-2;9.830592155E0;9.843440876E0
1.414412603E0;4.938040972E-1;1.041477770E-1;9.821015358E0;9.833973353E0
1.416409322E0;4.985924959E-1;9.935937077E-2;9.811438560E0;9.824601437E0
1.418406041E0;4.938040972E-1;1.041477770E-1;9.816226959E0;9.829191267E0
1.420402759E0;5.033808947E-1;8.978256583E-2;9.816226959E0;9.829535337E0
1.422399478E0;5.225345492E-1;8.499415964E-2;9.821015358E0;9.835273714E0
1.424396197E0;4.938040972E-1;8.499415964E-2;9.825803757E0;9.838571337E0
1.426392916E0;4.746504724E-1;9.935937077E-2;9.825803757E0;9.837763202E0
1.428389634E0;4.794389009E-1;8.499415964E-2;9.821015358E0;9.833078273E0
1.430386353E0;4.842272997E-1;9.935937077E-2;9.821015358E0;9.833447566E0
1.432383072E0;4.985924959E-1;8.978256583E-2;9.830592155E0;9.843637413E0
1.434379791E0;4.985924959E-1;8.978256583E-2;9.821015358E0;9.834073319E0
1.436376509E0;4.985924959E-1;9.457096457E-2;9.816226959E0;9.829336186E0
1.438373228E0;5.033808947E-1;9.457096457E-2;9.835380554E0;9.848707866E0
1.440369999E0;4.890156984E-1;9.457096457E-2;9.806650162E0;9.819290576E0
1.442366770E0;4.890156984E-1;8.499415964E-2;9.830592155E0;9.843114471E0
1.444363541E0;5.081692934E-1;9.935937077E-2;9.821015358E0;9.834655610E0
1.446360311E0;4.794389009E-1;9.457096457E-2;9.816226959E0;9.828383236E0
1.448357082E0;5.081692934E-1;8.499415964E-2;9.825803757E0;9.839302796E0
1.450353853E0;4.842272997E-1;1.185129806E-1;9.821015358E0;9.833659749E0
1.452350624E0;4.938040972E-1;8.499415964E-2;9.835380554E0;9.848135719E0
1.454347395E0;4.938040972E-1;9.457096457E-2;9.835380554E0;9.848223028E0
1.456344166E0;4.938040972E-1;8.499415964E-2;9.821015358E0;9.833789156E0
1.458340936E0;4.890156984E-1;8.020575345E-2;9.816226959E0;9.828727335E0
1.460337707E0;4.985924959E-1;1.089361757E-1;9.821015358E0;9.834266837E0
1.462334478E0;5.081692934E-1;9.457096457E-2;9.825803757E0;9.839390183E0
1.464331249E0;4.938040972E-1;9.935937077E-2;9.825803757E0;9.838705923E0
1.466328020E0;5.081692934E-1;9.457096457E-2;9.801861763E0;9.815481329E0
1.468324791E0;5.081692934E-1;9.457096457E-2;9.816226959E0;9.829826622E0
1.470321561E0;4.938040972E-1;9.935937077E-2;9.835380554E0;9.848270174E0
1.472318332E0;4.794389009E-1;1.041477770E-1;9.825803757E0;9.838044922E0
1.474315103E0;5.033808947E-1;8.978256583E-2;9.835380554E0;9.848663050E0
1.476311874E0;4.938040972E-1;9.935937077E-2;9.816226959E0;9.829141696E0
1.478308645E0;4.938040972E-1;9.935937077E-2;9.811438560E0;9.824359592E0
1.480305416E0;5.081692934E-1;9.935937077E-2;9.825803757E0;9.839437371E0
1.482302186E0;5.033808947E-1;8.978256583E-2;9.811438560E0;9.824753425E0
1.484298957E0;5.033808947E-1;9.457096457E-2;9.825803757E0;9.839144041E0
1.486295728E0;5.081692934E-1;8.978256583E-2;9.801861763E0;9.815436361E0
1.488292499E0;4.938040972E-1;9.457096457E-2;9.821015358E0;9.833876591E0
1.490289270E0;4.985924959E-1;8.978256583E-2;9.821015358E0;9.834073319E0
1.492286041E0;5.129576921E-1;8.978256583E-2;9.849745750E0;9.863502312E0
1.494282811E0;4.985924959E-1;8.499415964E-2;9.830592155E0;9.843594903E0
1.496279582E0;4.938040972E-1;9.457096457E-2;9.830592155E0;9.843440876E0
1.498276353E0;4.985924959E-1;9.457096457E-2;9.835380554E0;9.848464286E0
1.500273124E0;4.890156984E-1;8.978256583E-2;9.821015358E0;9.833592422E0
1.502269895E0;5.033808947E-1;8.978256583E-2;9.825803757E0;9.839099181E0
1.504266666E0;4.890156984E-1;1.089361757E-1;9.816226959E0;9.829003772E0
1.506263436E0;4.890156984E-1;9.935937077E-2;9.811438560E0;9.824120076E0
1.508260207E0;4.842272997E-1;8.020575345E-2;9.811438560E0;9.823707837E0
1.510256978E0;5.033808947E-1;9.457096457E-2;9.821015358E0;9.834362138E0
1.512253749E0;4.794389009E-1;9.935937077E-2;9.835380554E0;9.847560337E0
1.514250520E0;4.938040972E-1;9.935937077E-2;9.825803757E0;9.838705923E0
1.516247291E0;4.938040972E-1;9.935937077E-2;9.821015358E0;9.833923807E0
1.518244061E0;5.033808947E-1;8.499415964E-2;9.821015358E0;9.834274706E0
1.520240832E0;4.890156984E-1;9.457096457E-2;9.825803757E0;9.838419562E0
1.522237603E0;4.938040972E-1;8.978256583E-2;9.811438560E0;9.824267404E0
1.524234374E0;5.033808947E-1;9.935937077E-2;9.835380554E0;9.848755010E0
1.526231145E0;5.081692934E-1;8.978256583E-2;9.830592155E0;9.844127136E0
1.528227916E0;4.842272997E-1;9.935937077E-2;9.821015358E0;9.833447566E0
1.530224634E0;4.938040972E-1;8.499415964E-2;9.816226959E0;9.829006980E0
1.532221353E0;5.033808947E-1;7.541735470E-2;9.830592155E0;9.843760574E0
1.534218072E0;4.938040972E-1;9.457096457E-2;9.830592155E0;9.843440876E0
1.536214791E0;4.938040972E-1;9.457096457E-2;9.816226959E0;9.829094458E0
1.538211509E0;4.842272997E-1;9.457096457E-2;9.821015358E0;9.833400348E0
1.540208228E0;4.985924959E-1;9.457096457E-2;9.816226959E0;9.829336186E0
1.542204947E0;5.081692934E-1;9.457096457E-2;9.806650162E0;9.820263087E0
1.544201666E0;4.794389009E-1;1.041477770E-1;9.844957352E0;9.857174731E0
1.546198384E0;4.938040972E-1;9.935937077E-2;9.806650162E0;9.819577494E0
1.548195103E0;4.890156984E-1;9.457096457E-2;9.816226959E0;9.828855057E0
1.550191822E0;5.033808947E-1;8.978256583E-2;9.816226959E0;9.829535337E0
1.552188541E0;4.985924959E-1;8.020575345E-2;9.825803757E0;9.838772632E0
1.554185259E0;4.985924959E-1;9.457096457E-2;9.816226959E0;9.829336186E0
1.556181978E0;4.842272997E-1;8.978256583E-2;9.830592155E0;9.842920253E0
1.558178697E0;4.938040972E-1;8.978256583E-2;9.830592155E0;9.843396036E0
1.560175416E0;4.842272997E-1;8.978256583E-2;9.821015358E0;9.833355462E0
1.562172134E0;4.890156984E-1;9.457096457E-2;9.821015358E0;9.833637307E0
1.564168853E0;5.081692934E-1;1.041477770E-1;9.816226959E0;9.829923423E0
1.566165572E0;4.985924959E-1;7.541735470E-2;9.830592155E0;9.843516871E0
1.568162291E0;4.938040972E-1;9.457096457E-2;9.830592155E0;9.843440876E0
1.570159009E0;4.985924959E-1;9.457096457E-2;9.821015358E0;9.834118202E0
1.572155728E0;4.938040972E-1;9.935937077E-2;9.806650162E0;9.819577494E0
1.574152447E0;4.985924959E-1;8.978256583E-2;9.825803757E0;9.838855363E0
1.576149166E0;4.890156984E-1;8.978256583E-2;9.821015358E0;9.833592422E0
1.578145884E0;4.985924959E-1;8.978256583E-2;9.821015358E0;9.834073319E0
1.580142603E0;5.081692934E-1;8.978256583E-2;9.816226959E0;9.829781720E0
1.582139322E0;4.938040972E-1;8.499415964E-2;9.830592155E0;9.843353525E0
1.584136041E0;4.842272997E-1;1.089361757E-1;9.830592155E0;9.843113598E0
1.586132759E0;4.985924959E-1;8.499415964E-2;9.821015358E0;9.834030768E0
1.588129478E0;5.033808947E-1;9.457096457E-2;9.825803757E0;9.839144041E0
1.590126197E0;4.938040972E-1;8.020575345E-2;9.816226959E0;9.828966739E0
1.592122916E0;4.938040972E-1;9.457096457E-2;9.821015358E0;9.833876591E0
1.594119634E0;5.177460909E-1;9.457096457E-2;9.825803757E0;9.839889438E0
1.596116353E0;4.842272997E-1;6.584054977E-2;9.816226959E0;9.828383528E0
1.598113072E0;4.890156984E-1;8.499415964E-2;9.816226959E0;9.828767577E0
1.600109791E0;4.938040972E-1;8.499415964E-2;9.821015358E0;9.833789156E0
1.602106509E0;4.890156984E-1;1.041477770E-1;9.821015358E0;9.833734071E0
1.604103228E0;5.081692934E-1;8.978256583E-2;9.830592155E0;9.844127136E0
1.606099947E0;4.842272997E-1;9.935937077E-2;9.821015358E0;9.833447566E0
1.608096666E0;5.081692934E-1;8.499415964E-2;9.825803757E0;9.839302796E0
1.610093384E0;4.842272997E-1;8.978256583E-2;9.825803757E0;9.838137855E0
1.612090103E0;5.081692934E-1;9.935937077E-2;9.811438560E0;9.825092109E0
1.614086822E0;4.985924959E-1;9.935937077E-2;9.825803757E0;9.838947415E0
1.616083541E0;5.033808947E-1;9.457096457E-2;9.811438560E0;9.824798350E0
1.618080259E0;5.081692934E-1;9.935937077E-2;9.816226959E0;9.829873856E0
1.620076978E0;4.890156984E-1;9.935937077E-2;9.821015358E0;9.833684523E0
1.622073697E0;4.938040972E-1;8.978256583E-2;9.821015358E0;9.833831708E0
1.624070416E0;5.033808947E-1;9.457096457E-2;9.816226959E0;9.829580241E0
1.626067134E0;5.033808947E-1;9.457096457E-2;9.816226959E0;9.829580241E0
1.628063853E0;4.938040972E-1;1.041477770E-1;9.821015358E0;9.833973353E0
1.630060572E0;4.746504724E-1;1.041477770E-1;9.821015358E0;9.833030179E0
1.632057291E0;4.890156984E-1;8.978256583E-2;9.821015358E0;9.833592422E0
1.634054061E0;5.033808947E-1;8.020575345E-2;9.830592155E0;9.843798424E0
1.636050832E0;4.985924959E-1;9.935937077E-2;9.825803757E0;9.838947415E0
1.638047603E0;4.938040972E-1;9.935937077E-2;9.835380554E0;9.848270174E0
1.640044374E0;4.985924959E-1;9.935937077E-2;9.821015358E0;9.834165416E0
1.642041145E0;4.890156984E-1;8.978256583E-2;9.825803757E0;9.838374700E0
1.644037916E0;4.938040972E-1;8.020575345E-2;9.816226959E0;9.828966739E0
1.646034686E0;4.938040972E-1;8.978256583E-2;9.835380554E0;9.848178209E0
1.648031457E0;5.033808947E-1;9.935937077E-2;9.821015358E0;9.834409350E0
1.650028228E0;4.938040972E-1;8.978256583E-2;9.801861763E0;9.814703124E0
1.652024999E0;5.081692934E-1;8.499415964E-2;9.821015358E0;9.834520969E0
1.654021770E0;4.890156984E-1;9.935937077E-2;9.806650162E0;9.819337861E0
1.656018541E0;4.985924959E-1;9.457096457E-2;9.825803757E0;9.838900224E0
1.658015311E0;5.129576921E-1;8.978256583E-2;9.816226959E0;9.830030428E0
1.660012082E0;4.938040972E-1;8.499415964E-2;9.806650162E0;9.819442647E0
1.662008853E0;4.985924959E-1;8.978256583E-2;9.825803757E0;9.838855363E0
1.664005624E0;5.081692934E-1;8.020575345E-2;9.816226959E0;9.829698912E0
1.666002395E0;4.985924959E-1;7.541735470E-2;9.821015358E0;9.833952660E0
1.667999166E0;4.938040972E-1;8.978256583E-2;9.811438560E0;9.824267404E0
1.669995936E0;4.938040972E-1;9.935937077E-2;9.830592155E0;9.843488045E0
1.671992707E0;4.890156984E-1;9.457096457E-2;9.830592155E0;9.843201824E0
1.673989478E0;5.033808947E-1;9.457096457E-2;9.821015358E0;9.834362138E0
1.675986249E0;4.890156984E-1;9.457096457E-2;9.830592155E0;9.843201824E0
1.677983020E0;5.177460909E-1;1.185129806E-1;9.821015358E0;9.835367253E0
1.679979791E0;5.033808947E-1;9.935937077E-2;9.825803757E0;9.839191231E0
1.681976561E0;5.033808947E-1;1.089361757E-1;9.816226959E0;9.829728945E0
1.683973332E0;4.985924959E-1;1.089361757E-1;9.825803757E0;9.839048787E0
1.685970103E0;5.033808947E-1;9.457096457E-2;9.821015358E0;9.834362138E0
1.687966874E0;4.890156984E-1;8.978256583E-2;9.821015358E0;9.833592422E0
1.689963645E0;5.033808947E-1;9.935937077E-2;9.840168953E0;9.853536910E0
1.691960416E0;4.938040972E-1;1.041477770E-1;9.825803757E0;9.838755445E0
1.693957186E0;4.985924959E-1;8.978256583E-2;9.811438560E0;9.824509250E0
1.695953957E0;4.842272997E-1;1.041477770E-1;9.821015358E0;9.833497114E0
1.697950728E0;5.081692934E-1;8.499415964E-2;9.816226959E0;9.829739150E0
1.699947499E0;5.033808947E-1;9.457096457E-2;9.806650162E0;9.820016466E0
1.701944270E0;4.985924959E-1;8.978256583E-2;9.825803757E0;9.838855363E0
1.703941041E0;5.033808947E-1;8.978256583E-2;9.821015358E0;9.834317256E0
1.705937811E0;4.985924959E-1;1.041477770E-1;9.835380554E0;9.848560904E0
1.707934582E0;4.938040972E-1;8.499415964E-2;9.821015358E0;9.833789156E0
1.709931353E0;4.938040972E-1;9.935937077E-2;9.811438560E0;9.824359592E0
1.711928124E0;4.890156984E-1;8.978256583E-2;9.816226959E0;9.828810151E0
1.713924895E0;5.033808947E-1;9.457096457E-2;9.816226959E0;9.829580241E0
1.715921666E0;4.985924959E-1;8.978256583E-2;9.811438560E0;9.824509250E0
1.717918436E0;5.033808947E-1;8.020575345E-2;9.840168953E0;9.853362386E0
1.719915207E0;4.985924959E-1;8.499415964E-2;9.825803757E0;9.838812832E0
1.721911978E0;4.938040972E-1;9.457096457E-2;9.830592155E0;9.843440876E0
1.723908749E0;4.842272997E-1;8.978256583E-2;9.811438560E0;9.823790695E0
1.725905520E0;4.890156984E-1;8.499415964E-2;9.825803757E0;9.838332167E0
1.727902238E0;4.890156984E-1;8.978256583E-2;9.821015358E0;9.833592422E0
1.729898957E0;5.033808947E-1;8.499415964E-2;9.830592155E0;9.843838604E0
1.731895676E0;4.938040972E-1;9.935937077E-2;9.816226959E0;9.829141696E0
1.733892395E0;4.890156984E-1;8.499415964E-2;9.821015358E0;9.833549869E0
1.735889113E0;4.985924959E-1;9.457096457E-2;9.821015358E0;9.834118202E0
1.737885832E0;4.890156984E-1;1.041477770E-1;9.811438560E0;9.824169672E0
1.739882551E0;5.081692934E-1;9.457096457E-2;9.811438560E0;9.825044851E0
1.741879270E0;5.033808947E-1;1.041477770E-1;9.821015358E0;9.834458894E0
1.743875988E0;5.081692934E-1;9.457096457E-2;9.825803757E0;9.839390183E0
1.745872707E0;4.890156984E-1;9.935937077E-2;9.825803757E0;9.838466756E0
1.747869426E0;4.985924959E-1;8.020575345E-2;9.811438560E0;9.824426399E0
1.749866145E0;4.985924959E-1;9.457096457E-2;9.825803757E0;9.838900224E0
1.751862863E0;4.985924959E-1;9.457096457E-2;9.830592155E0;9.843682252E0
1.753859582E0;4.985924959E-1;7.541735470E-2;9.825803757E0;9.838734762E0
1.755856301E0;4.890156984E-1;9.935937077E-2;9.835380554E0;9.848031239E0
1.757853020E0;4.938040972E-1;8.978256583E-2;9.825803757E0;9.838613869E0
1.759849738E0;4.985924959E-1;9.935937077E-2;9.821015358E0;9.834165416E0
1.761846457E0;4.938040972E-1;8.499415964E-2;9.830592155E0;9.843353525E0
1.763843176E0;5.081692934E-1;1.089361757E-1;9.816226959E0;9.829975322E0
1.765839895E0;4.938040972E-1;8.020575345E-2;9.816226959E0;9.828966739E0
1.767836613E0;4.938040972E-1;1.041477770E-1;9.816226959E0;9.829191267E0
1.769833332E0;4.842272997E-1;8.499415964E-2;9.844957352E0;9.857225033E0
1.771830051E0;4.985924959E-1;8.978256583E-2;9.816226959E0;9.829291282E0
1.773826770E0;5.033808947E-1;8.499415964E-2;9.825803757E0;9.839056652E0
1.775823488E0;4.985924959E-1;8.978256583E-2;9.816226959E0;9.829291282E0
1.777820207E0;4.985924959E-1;9.935937077E-2;9.825803757E0;9.838947415E0
1.779816926E0;4.938040972E-1;9.457096457E-2;9.816226959E0;9.829094458E0
1.781813645E0;4.842272997E-1;9.935937077E-2;9.821015358E0;9.833447566E0
1.783810363E0;4.938040972E-1;8.978256583E-2;9.825803757E0;9.838613869E0
1.785807082E0;4.794389009E-1;7.541735470E-2;9.816226959E0;9.828217598E0
1.787803801E0;4.938040972E-1;9.457096457E-2;9.816226959E0;9.829094458E0
1.789800520E0;4.938040972E-1;1.089361757E-1;9.821015358E0;9.834025231E0
1.791797238E0;4.890156984E-1;8.978256583E-2;9.825803757E0;9.838374700E0
1.793793957E0;4.890156984E-1;8.978256583E-2;9.821015358E0;9.833592422E0
1.795790676E0;4.985924959E-1;9.457096457E-2;9.825803757E0;9.838900224E0
1.797787395E0;4.890156984E-1;9.935937077E-2;9.811438560E0;9.824120076E0
1.799784113E0;4.985924959E-1;1.041477770E-1;9.821015358E0;9.834214961E0
1.801780832E0;4.842272997E-1;9.457096457E-2;9.825803757E0;9.838182719E0
1.803777551E0;4.794389009E-1;8.499415964E-2;9.825803757E0;9.837860801E0
1.805774270E0;4.938040972E-1;9.457096457E-2;9.816226959E0;9.829094458E0
1.807770988E0;4.985924959E-1;8.499415964E-2;9.821015358E0;9.834030768E0
1.809767707E0;5.033808947E-1;8.978256583E-2;9.825803757E0;9.839099181E0
1.811764426E0;4.794389009E-1;9.935937077E-2;9.821015358E0;9.833212934E0
1.813761145E0;4.890156984E-1;8.499415964E-2;9.830592155E0;9.843114471E0
1.815757863E0;4.938040972E-1;8.978256583E-2;9.821015358E0;9.833831708E0
1.817754582E0;5.129576921E-1;9.935937077E-2;9.811438560E0;9.825340936E0
1.819751301E0;4.842272997E-1;8.978256583E-2;9.816226959E0;9.828573076E0
1.821748020E0;4.890156984E-1;8.978256583E-2;9.816226959E0;9.828810151E0
1.823744738E0;5.033808947E-1;8.978256583E-2;9.821015358E0;9.834317256E0
1.825741457E0;4.985924959E-1;8.978256583E-2;9.821015358E0;9.834073319E0
1.827738176E0;4.938040972E-1;8.978256583E-2;9.821015358E0;9.833831708E0
1.829734947E0;4.985924959E-1;8.978256583E-2;9.825803757E0;9.838855363E0
1.831731718E0;4.890156984E-1;1.041477770E-1;9.821015358E0;9.833734071E0
1.833728488E0;5.081692934E-1;1.041477770E-1;9.816226959E0;9.829923423E0
1.835725259E0;4.890156984E-1;8.499415964E-2;9.816226959E0;9.828767577E0
1.837722030E0;4.985924959E-1;1.185129806E-1;9.821015358E0;9.834377584E0
1.839718801E0;4.842272997E-1;1.041477770E-1;9.816226959E0;9.828714797E0
1.841715572E0;5.177460909E-1;8.020575345E-2;9.811438560E0;9.825417070E0
1.843712343E0;4.794389009E-1;8.020575345E-2;9.821015358E0;9.833038050E0
1.845709113E0;4.890156984E-1;8.978256583E-2;9.825803757E0;9.838374700E0
1.847705884E0;5.081692934E-1;8.020575345E-2;9.821015358E0;9.834480752E0
1.849702655E0;4.938040972E-1;8.499415964E-2;9.821015358E0;9.833789156E0
1.851699426E0;4.985924959E-1;8.978256583E-2;9.825803757E0;9.838855363E0
1.853696197E0;4.938040972E-1;9.457096457E-2;9.806650162E0;9.819530210E0
1.855692968E0;5.033808947E-1;1.041477770E-1;9.821015358E0;9.834458894E0
1.857689738E0;4.938040972E-1;8.978256583E-2;9.816226959E0;9.829049553E0
1.859686509E0;4.938040972E-1;9.935937077E-2;9.816226959E0;9.829141696E0
1.861683280E0;4.985924959E-1;8.499415964E-2;9.811438560E0;9.824466658E0
1.863680051E0;4.985924959E-1;8.499415964E-2;9.816226959E0;9.829248710E0
1.865676822E0;4.842272997E-1;8.499415964E-2;9.806650162E0;9.818965703E0
1.867673593E0;4.938040972E-1;9.935937077E-2;9.835380554E0;9.848270174E0
1.869670363E0;4.938040972E-1;9.457096457E-2;9.835380554E0;9.848223028E0
1.871667134E0;5.033808947E-1;9.935937077E-2;9.835380554E0;9.848755010E0
1.873663905E0;4.985924959E-1;9.935937077E-2;9.821015358E0;9.834165416E0
1.875660676E0;4.890156984E-1;9.457096457E-2;9.821015358E0;9.833637307E0
1.877657447E0;4.938040972E-1;1.089361757E-1;9.825803757E0;9.838807298E0
1.879654218E0;4.985924959E-1;8.499415964E-2;9.821015358E0;9.834030768E0
1.881650988E0;4.890156984E-1;9.935937077E-2;9.825803757E0;9.838466756E0
1.883647759E0;4.842272997E-1;9.457096457E-2;9.825803757E0;9.838182719E0
1.885644530E0;4.938040972E-1;9.457096457E-2;9.825803757E0;9.838658731E0
1.887641301E0;4.938040972E-1;8.020575345E-2;9.825803757E0;9.838531136E0
1.889638072E0;5.033808947E-1;8.020575345E-2;9.821015358E0;9.834234487E0
1.891634843E0;4.985924959E-1;9.935937077E-2;9.821015358E0;9.834165416E0
1.893631613E0;4.842272997E-1;9.457096457E-2;9.811438560E0;9.823835624E0
1.895628384E0;5.033808947E-1;9.935937077E-2;9.816226959E0;9.829627476E0
1.897625155E0;4.985924959E-1;1.089361757E-1;9.816226959E0;9.829484894E0
1.899621926E0;4.985924959E-1;8.499415964E-2;9.835380554E0;9.848376979E0
1.901618697E0;5.225345492E-1;8.020575345E-2;9.830592155E0;9.844796465E0
1.903615468E0;4.842272997E-1;8.978256583E-2;9.821015358E0;9.833355462E0
1.905612238E0;4.938040972E-1;1.089361757E-1;9.825803757E0;9.838807298E0
1.907609009E0;4.938040972E-1;8.978256583E-2;9.821015358E0;9.833831708E0
1.909605780E0;4.794389009E-1;9.935937077E-2;9.816226959E0;9.828430478E0
1.911602551E0;4.842272997E-1;9.935937077E-2;9.811438560E0;9.823882888E0
1.913599322E0;4.985924959E-1;8.499415964E-2;9.816226959E0;9.829248710E0
1.915596093E0;4.842272997E-1;8.020575345E-2;9.821015358E0;9.833272685E0
1.917592863E0;4.794389009E-1;1.041477770E-1;9.830592155E0;9.842827365E0
1.919589634E0;4.985924959E-1;8.499415964E-2;9.825803757E0;9.838812832E0
1.921586405E0;4.890156984E-1;9.935937077E-2;9.821015358E0;9.833684523E0
1.923583176E0;5.033808947E-1;8.978256583E-2;9.830592155E0;9.843881113E0
1.925579947E0;5.033808947E-1;1.041477770E-1;9.830592155E0;9.844022613E0
1.927576666E0;5.033808947E-1;9.457096457E-2;9.835380554E0;9.848707866E0
1.929573384E0;4.890156984E-1;9.457096457E-2;9.835380554E0;9.847984092E0
1.931570103E0;5.033808947E-1;8.978256583E-2;9.835380554E0;9.848663050E0
1.933566822E0;4.842272997E-1;8.499415964E-2;9.811438560E0;9.823748099E0
1.935563541E0;4.890156984E-1;9.457096457E-2;9.821015358E0;9.833637307E0
1.937560259E0;4.985924959E-1;8.978256583E-2;9.825803757E0;9.838855363E0
1.939556978E0;5.033808947E-1;9.935937077E-2;9.830592155E0;9.843973117E0
1.941553697E0;4.890156984E-1;9.457096457E-2;9.816226959E0;9.828855057E0
1.943550416E0;4.985924959E-1;8.978256583E-2;9.835380554E0;9.848419469E0
1.945547134E0;5.081692934E-1;9.457096457E-2;9.816226959E0;9.829826622E0
1.947543853E0;4.985924959E-1;8.499415964E-2;9.830592155E0;9.843594903E0
1.949540572E0;4.890156984E-1;8.499415964E-2;9.821015358E0;9.833549869E0
1.951537291E0;4.890156984E-1;9.457096457E-2;9.821015358E0;9.833637307E0
1.953534009E0;4.985924959E-1;8.020575345E-2;9.830592155E0;9.843554722E0
1.955530728E0;5.081692934E-1;1.041477770E-1;9.825803757E0;9.839486890E0
1.957527447E0;4.985924959E-1;8.499415964E-2;9.821015358E0;9.834030768E0
1.959524166E0;4.794389009E-1;9.935937077E-2;9.806650162E0;9.818865583E0
1.961520884E0;4.985924959E-1;8.499415964E-2;9.821015358E0;9.834030768E0
1.963517603E0;5.033808947E-1;1.041477770E-1;9.821015358E0;9.834458894E0
1.965514322E0;4.890156984E-1;1.041477770E-1;9.821015358E0;9.833734071E0
1.967511041E0;4.890156984E-1;8.978256583E-2;9.830592155E0;9.843156983E0
1.969507759E0;4.938040972E-1;8.499415964E-2;9.816226959E0;9.829006980E0
1.971504478E0;5.033808947E-1;9.457096457E-2;9.825803757E0;9.839144041E0
1.973501197E0;4.890156984E-1;8.020575345E-2;9.825803757E0;9.838291965E0
1.975497916E0;5.033808947E-1;8.499415964E-2;9.825803757E0;9.839056652E0
1.977494634E0;4.890156984E-1;8.499415964E-2;9.835380554E0;9.847896781E0
1.979491353E0;4.938040972E-1;9.935937077E-2;9.806650162E0;9.819577494E0
1.981488072E0;4.985924959E-1;9.457096457E-2;9.825803757E0;9.838900224E0
1.983484791E0;4.890156984E-1;8.020575345E-2;9.830592155E0;9.843074288E0
1.985481509E0;5.081692934E-1;9.457096457E-2;9.830592155E0;9.844171973E0
1.987478228E0;5.081692934E-1;9.935937077E-2;9.825803757E0;9.839437371E0
1.989474947E0;4.842272997E-1;8.978256583E-2;9.830592155E0;9.842920253E0
1.991471666E0;5.033808947E-1;8.978256583E-2;9.816226959E0;9.829535337E0
1.993468384E0;5.129576921E-1;9.935937077E-2;9.816226959E0;9.830122562E0
1.995465103E0;4.938040972E-1;8.499415964E-2;9.825803757E0;9.838571337E0
1.997461822E0;5.033808947E-1;8.978256583E-2;9.811438560E0;9.824753425E0
1.999458541E0;4.938040972E-1;9.457096457E-2;9.821015358E0;9.833876591E0
2.001455259E0;4.890156984E-1;1.041477770E-1;9.821015358E0;9.833734071E0
2.003451978E0;4.985924959E-1;9.935937077E-2;9.825803757E0;9.838947415E0
2.005448697E0;4.985924959E-1;8.499415964E-2;9.816226959E0;9.829248710E0
2.007445416E0;4.985924959E-1;9.935937077E-2;9.806650162E0;9.819819456E0
2.009442134E0;4.842272997E-1;8.978256583E-2;9.830592155E0;9.842920253E0
2.011438853E0;5.033808947E-1;8.499415964E-2;9.816226959E0;9.829492767E0
2.013435572E0;5.033808947E-1;8.978256583E-2;9.821015358E0;9.834317256E0
2.015432291E0;4.938040972E-1;8.499415964E-2;9.821015358E0;9.833789156E0
2.017429009E0;4.890156984E-1;8.978256583E-2;9.821015358E0;9.833592422E0
2.019425728E0;4.938040972E-1;8.978256583E-2;9.825803757E0;9.838613869E0
2.021422447E0;4.938040972E-1;8.978256583E-2;9.811438560E0;9.824267404E0
2.023419166E0;4.985924959E-1;8.978256583E-2;9.821015358E0;9.834073319E0
2.025415936E0;4.842272997E-1;8.978256583E-2;9.821015358E0;9.833355462E0
2.027412707E0;4.985924959E-1;8.499415964E-2;9.835380554E0;9.848376979E0
2.029409478E0;4.938040972E-1;1.089361757E-1;9.816226959E0;9.829243170E0
2.031406249E0;4.794389009E-1;9.935937077E-2;9.830592155E0;9.842777864E0
2.033403020E0;4.985924959E-1;9.935937077E-2;9.821015358E0;9.834165416E0
2.035399791E0;5.129576921E-1;8.978256583E-2;9.830592155E0;9.844375482E0
2.037396561E0;5.033808947E-1;9.457096457E-2;9.811438560E0;9.824798350E0
2.039393332E0;4.842272997E-1;8.978256583E-2;9.811438560E0;9.823790695E0
2.041390103E0;4.985924959E-1;8.499415964E-2;9.825803757E0;9.838812832E0
2.043386874E0;4.890156984E-1;9.457096457E-2;9.816226959E0;9.828855057E0
2.045383645E0;4.938040972E-1;9.457096457E-2;9.835380554E0;9.848223028E0
2.047380416E0;4.890156984E-1;1.041477770E-1;9.825803757E0;9.838516279E0
2.049377186E0;4.938040972E-1;6.105214357E-2;9.825803757E0;9.838393635E0
2.051373957E0;4.842272997E-1;8.499415964E-2;9.821015358E0;9.833312908E0
2.053370728E0;4.890156984E-1;1.041477770E-1;9.825803757E0;9.838516279E0
2.055367499E0;5.081692934E-1;8.499415964E-2;9.821015358E0;9.834520969E0
2.057364270E0;4.985924959E-1;9.457096457E-2;9.835380554E0;9.848464286E0
2.059361041E0;4.985924959E-1;8.499415964E-2;9.825803757E0;9.838812832E0
2.061357811E0;4.938040972E-1;7.541735470E-2;9.825803757E0;9.838493265E0
2.063354582E0;4.985924959E-1;9.457096457E-2;9.825803757E0;9.838900224E0
2.065351353E0;4.842272997E-1;8.978256583E-2;9.825803757E0;9.838137855E0
2.067348124E0;4.890156984E-1;8.020575345E-2;9.821015358E0;9.833509647E0
2.069344895E0;4.938040972E-1;8.499415964E-2;9.830592155E0;9.843353525E0
2.071341666E0;4.985924959E-1;8.499415964E-2;9.816226959E0;9.829248710E0
2.073338436E0;4.985924959E-1;9.935937077E-2;9.840168953E0;9.853293449E0
2.075335207E0;4.842272997E-1;9.935937077E-2;9.835380554E0;9.847794627E0
2.077331978E0;4.842272997E-1;8.499415964E-2;9.825803757E0;9.838095321E0
2.079328749E0;4.890156984E-1;9.457096457E-2;9.811438560E0;9.824072814E0
2.081325520E0;4.938040972E-1;8.978256583E-2;9.835380554E0;9.848178209E0
2.083322291E0;4.890156984E-1;8.020575345E-2;9.830592155E0;9.843074288E0
2.085319061E0;4.842272997E-1;8.499415964E-2;9.830592155E0;9.842877740E0
2.087315832E0;5.129576921E-1;1.089361757E-1;9.821015358E0;9.835005610E0
2.089312603E0;4.842272997E-1;8.499415964E-2;9.811438560E0;9.823748099E0
2.091309374E0;5.033808947E-1;8.499415964E-2;9.821015358E0;9.834274706E0
2.093306145E0;4.985924959E-1;8.499415964E-2;9.821015358E0;9.834030768E0
2.095302916E0;4.938040972E-1;9.457096457E-2;9.821015358E0;9.833876591E0
2.097299686E0;4.890156984E-1;9.457096457E-2;9.825803757E0;9.838419562E0
2.099296457E0;4.890156984E-1;8.978256583E-2;9.821015358E0;9.833592422E0
2.101293228E0;4.890156984E-1;8.499415964E-2;9.816226959E0;9.828767577E0
2.103289999E0;4.985924959E-1;9.457096457E-2;9.821015358E0;9.834118202E0
2.105286770E0;4.938040972E-1;8.978256583E-2;9.821015358E0;9.833831708E0
2.107283541E0;4.985924959E-1;8.020575345E-2;9.816226959E0;9.829208470E0
2.109280311E0;4.890156984E-1;8.978256583E-2;9.825803757E0;9.838374700E0
2.111277082E0;4.985924959E-1;8.978256583E-2;9.830592155E0;9.843637413E0
2.113273853E0;4.938040972E-1;9.457096457E-2;9.816226959E0;9.829094458E0
2.115270624E0;4.842272997E-1;9.935937077E-2;9.835380554E0;9.847794627E0
2.117267395E0;4.890156984E-1;9.935937077E-2;9.830592155E0;9.843248994E0
2.119264166E0;5.033808947E-1;9.935937077E-2;9.821015358E0;9.834409350E0
2.121260936E0;4.890156984E-1;9.457096457E-2;9.825803757E0;9.838419562E0
2.123257707E0;5.033808947E-1;9.935937077E-2;9.821015358E0;9.834409350E0
2.125254478E0;4.985924959E-1;8.978256583E-2;9.830592155E0;9.843637413E0
2.127251197E0;4.842272997E-1;1.041477770E-1;9.801861763E0;9.814367879E0
2.129247916E0;4.938040972E-1;8.978256583E-2;9.811438560E0;9.824267404E0
2.131244634E0;4.985924959E-1;8.499415964E-2;9.830592155E0;9.843594903E0
2.133241353E0;5.225345492E-1;9.935937077E-2;9.821015358E0;9.835408344E0
2.135238072E0;5.033808947E-1;8.978256583E-2;9.816226959E0;9.829535337E0
2.137234791E0;5.033808947E-1;9.935937077E-2;9.825803757E0;9.839191231E0
2.139231509E0;5.129576921E-1;9.457096457E-2;9.811438560E0;9.825293679E0
2.141228228E0;4.985924959E-1;8.499415964E-2;9.825803757E0;9.838812832E0
2.143224947E0;5.177460909E-1;9.457096457E-2;9.840168953E0;9.854234100E0
2.145221666E0;4.985924959E-1;8.978256583E-2;9.825803757E0;9.838855363E0
2.147218384E0;4.938040972E-1;8.978256583E-2;9.821015358E0;9.833831708E0
2.149215103E0;5.129576921E-1;9.457096457E-2;9.816226959E0;9.830075329E0
2.151211822E0;4.985924959E-1;8.499415964E-2;9.830592155E0;9.843594903E0
2.153208541E0;4.985924959E-1;9.457096457E-2;9.816226959E0;9.829336186E0
2.155205259E0;4.938040972E-1;9.457096457E-2;9.811438560E0;9.824312331E0
2.157201978E0;5.081692934E-1;9.935937077E-2;9.811438560E0;9.825092109E0
2.159198697E0;5.081692934E-1;9.457096457E-2;9.825803757E0;9.839390183E0
2.161195416E0;4.842272997E-1;9.935937077E-2;9.811438560E0;9.823882888E0
2.163192134E0;4.985924959E-1;7.062894851E-2;9.830592155E0;9.843481348E0
2.165188853E0;4.985924959E-1;1.041477770E-1;9.816226959E0;9.829432992E0
2.167185572E0;4.890156984E-1;8.978256583E-2;9.825803757E0;9.838374700E0
2.169182291E0;4.890156984E-1;9.457096457E-2;9.830592155E0;9.843201824E0
2.171179009E0;4.985924959E-1;8.499415964E-2;9.830592155E0;9.843594903E0
2.173175728E0;4.985924959E-1;9.457096457E-2;9.835380554E0;9.848464286E0
2.175172447E0;5.081692934E-1;7.541735470E-2;9.821015358E0;9.834442865E0
2.177169166E0;4.890156984E-1;9.935937077E-2;9.835380554E0;9.848031239E0
2.179165884E0;4.890156984E-1;8.499415964E-2;9.816226959E0;9.828767577E0
2.181162603E0;4.890156984E-1;8.499415964E-2;9.821015358E0;9.833549869E0
2.183159322E0;4.890156984E-1;7.541735470E-2;9.811438560E0;9.823907102E0
2.185156041E0;5.033808947E-1;8.020575345E-2;9.816226959E0;9.829452528E0
2.187152759E0;5.033808947E-1;8.499415964E-2;9.830592155E0;9.843838604E0
2.189149478E0;4.890156984E-1;7.541735470E-2;9.816226959E0;9.828689427E0
2.191146197E0;4.985924959E-1;8.978256583E-2;9.821015358E0;9.834073319E0
2.193142916E0;5.033808947E-1;8.978256583E-2;9.840168953E0;9.853444994E0
2.195139634E0;4.938040972E-1;9.935937077E-2;9.830592155E0;9.843488045E0
2.197136353E0;5.081692934E-1;9.457096457E-2;9.830592155E0;9.844171973E0
2.199133072E0;4.938040972E-1;1.041477770E-1;9.830592155E0;9.843537544E0
2.201129791E0;4.890156984E-1;8.978256583E-2;9.830592155E0;9.843156983E0
2.203126509E0;4.938040972E-1;9.457096457E-2;9.821015358E0;9.833876591E0
2.205123228E0;5.033808947E-1;9.457096457E-2;9.816226959E0;9.829580241E0
2.207119947E0;4.938040972E-1;1.089361757E-1;9.821015358E0;9.834025231E0
2.209116666E0;4.890156984E-1;9.457096457E-2;9.830592155E0;9.843201824E0
2.211113384E0;5.081692934E-1;9.935937077E-2;9.811438560E0;9.825092109E0
2.213110103E0;4.890156984E-1;8.499415964E-2;9.811438560E0;9.823985290E0
2.215106822E0;4.938040972E-1;8.978256583E-2;9.816226959E0;9.829049553E0
2.217103541E0;4.842272997E-1;1.089361757E-1;9.825803757E0;9.838331293E0
2.219100259E0;4.985924959E-1;8.978256583E-2;9.811438560E0;9.824509250E0
2.221097030E0;4.938040972E-1;1.089361757E-1;9.821015358E0;9.834025231E0
2.223093801E0;4.938040972E-1;8.020575345E-2;9.821015358E0;9.833748935E0
2.225090572E0;5.033808947E-1;8.499415964E-2;9.806650162E0;9.819928906E0
2.227087343E0;5.129576921E-1;8.978256583E-2;9.821015358E0;9.834812106E0
2.229084113E0;4.938040972E-1;8.978256583E-2;9.840168953E0;9.852960389E0
2.231080884E0;4.890156984E-1;8.020575345E-2;9.835380554E0;9.847856618E0
2.233077655E0;4.794389009E-1;9.935937077E-2;9.821015358E0;9.833212934E0
2.235074426E0;4.985924959E-1;8.499415964E-2;9.835380554E0;9.848376979E0
2.237071197E0;5.033808947E-1;1.137245819E-1;9.844957352E0;9.858474064E0
2.239067968E0;5.033808947E-1;9.935937077E-2;9.816226959E0;9.829627476E0
2.241064738E0;4.985924959E-1;8.978256583E-2;9.816226959E0;9.829291282E0
2.243061509E0;4.890156984E-1;8.499415964E-2;9.821015358E0;9.833549869E0
2.245058280E0;4.985924959E-1;9.935937077E-2;9.811438560E0;9.824601437E0
2.247055051E0;4.938040972E-1;9.457096457E-2;9.825803757E0;9.838658731E0
2.249051822E0;4.938040972E-1;9.935937077E-2;9.840168953E0;9.853052308E0
2.251048593E0;4.985924959E-1;9.457096457E-2;9.825803757E0;9.838900224E0
2.253045363E0;4.938040972E-1;9.935937077E-2;9.811438560E0;9.824359592E0
2.255042134E0;5.033808947E-1;8.020575345E-2;9.821015358E0;9.834234487E0
2.257038905E0;4.985924959E-1;8.020575345E-2;9.816226959E0;9.829208470E0
2.259035676E0;4.890156984E-1;8.499415964E-2;9.811438560E0;9.823985290E0
2.261032447E0;4.842272997E-1;8.978256583E-2;9.830592155E0;9.842920253E0
2.263029218E0;4.890156984E-1;9.935937077E-2;9.825803757E0;9.838466756E0
2.265025988E0;4.985924959E-1;9.457096457E-2;9.825803757E0;9.838900224E0
2.267022759E0;4.985924959E-1;9.457096457E-2;9.816226959E0;9.829336186E0
2.269019530E0;5.033808947E-1;8.978256583E-2;9.811438560E0;9.824753425E0
2.271016301E0;5.081692934E-1;9.935937077E-2;9.821015358E0;9.834655610E0
2.273013072E0;5.033808947E-1;9.935937077E-2;9.835380554E0;9.848755010E0
2.275009843E0;4.938040972E-1;9.457096457E-2;9.821015358E0;9.833876591E0
2.277006613E0;5.081692934E-1;8.978256583E-2;9.825803757E0;9.839345324E0
2.279003384E0;4.938040972E-1;8.978256583E-2;9.825803757E0;9.838613869E0
2.281000155E0;4.890156984E-1;8.978256583E-2;9.830592155E0;9.843156983E0
2.282996926E0;4.890156984E-1;8.020575345E-2;9.830592155E0;9.843074288E0
2.284993697E0;5.033808947E-1;8.978256583E-2;9.830592155E0;9.843881113E0
2.286990468E0;4.842272997E-1;8.978256583E-2;9.811438560E0;9.823790695E0
2.288987238E0;4.985924959E-1;8.020575345E-2;9.825803757E0;9.838772632E0
2.290984009E0;4.842272997E-1;8.499415964E-2;9.830592155E0;9.842877740E0
2.292980780E0;4.938040972E-1;1.041477770E-1;9.821015358E0;9.833973353E0
2.294977551E0;4.842272997E-1;8.499415964E-2;9.816226959E0;9.828530501E0
2.296974322E0;4.938040972E-1;8.499415964E-2;9.835380554E0;9.848135719E0
2.298971093E0;4.938040972E-1;8.978256583E-2;9.816226959E0;9.829049553E0
2.300967863E0;4.938040972E-1;8.499415964E-2;9.830592155E0;9.843353525E0
2.302964634E0;5.129576921E-1;8.978256583E-2;9.840168953E0;9.853938884E0
2.304961405E0;5.033808947E-1;1.041477770E-1;9.821015358E0;9.834458894E0
2.306958176E0;4.985924959E-1;8.499415964E-2;9.821015358E0;9.834030768E0
2.308954947E0;4.938040972E-1;8.978256583E-2;9.825803757E0;9.838613869E0
2.310951718E0;5.081692934E-1;8.020575345E-2;9.835380554E0;9.848826308E0
2.312948488E0;4.890156984E-1;9.457096457E-2;9.821015358E0;9.833637307E0
2.314945259E0;4.985924959E-1;8.978256583E-2;9.825803757E0;9.838855363E0
2.316942030E0;4.938040972E-1;9.935937077E-2;9.811438560E0;9.824359592E0
2.318938801E0;4.890156984E-1;9.935937077E-2;9.835380554E0;9.848031239E0
2.320935572E0;4.890156984E-1;8.978256583E-2;9.821015358E0;9.833592422E0
2.322932343E0;4.938040972E-1;9.457096457E-2;9.825803757E0;9.838658731E0
2.324929113E0;4.794389009E-1;9.935937077E-2;9.816226959E0;9.828430478E0
2.326925832E0;5.129576921E-1;8.499415964E-2;9.821015358E0;9.834769558E0
2.328922551E0;5.081692934E-1;8.978256583E-2;9.825803757E0;9.839345324E0
2.330919270E0;4.985924959E-1;9.935937077E-2;9.825803757E0;9.838947415E0
2.332915988E0;4.842272997E-1;8.499415964E-2;9.816226959E0;9.828530501E0
2.334912707E0;4.938040972E-1;8.499415964E-2;9.806650162E0;9.819442647E0
2.336909426E0;5.033808947E-1;8.499415964E-2;9.825803757E0;9.839056652E0
2.338906145E0;5.033808947E-1;1.041477770E-1;9.821015358E0;9.834458894E0
2.340902863E0;4.938040972E-1;1.089361757E-1;9.830592155E0;9.843589371E0
2.342899582E0;4.842272997E-1;9.457096457E-2;9.825803757E0;9.838182719E0
2.344896301E0;5.033808947E-1;8.020575345E-2;9.821015358E0;9.834234487E0
2.346893020E0;4.890156984E-1;8.978256583E-2;9.830592155E0;9.843156983E0
2.348889738E0;4.746504724E-1;9.457096457E-2;9.835380554E0;9.847281218E0
2.350886457E0;4.985924959E-1;9.457096457E-2;9.821015358E0;9.834118202E0
2.352883176E0;4.890156984E-1;9.457096457E-2;9.821015358E0;9.833637307E0
2.354879895E0;4.985924959E-1;9.457096457E-2;9.816226959E0;9.829336186E0
2.356876613E0;4.890156984E-1;8.499415964E-2;9.816226959E0;9.828767577E0
2.358873332E0;4.890156984E-1;8.978256583E-2;9.821015358E0;9.833592422E0
2.360870051E0;5.033808947E-1;8.499415964E-2;9.830592155E0;9.843838604E0
2.362866770E0;5.033808947E-1;8.978256583E-2;9.825803757E0;9.839099181E0
2.364863488E0;4.746504724E-1;1.041477770E-1;9.830592155E0;9.842595286E0
2.366860207E0;4.985924959E-1;8.020575345E-2;9.821015358E0;9.833990548E0
2.368856926E0;4.985924959E-1;1.041477770E-1;9.835380554E0;9.848560904E0
2.370853645E0;5.033808947E-1;8.499415964E-2;9.830592155E0;9.843838604E0
2.372850363E0;4.794389009E-1;9.457096457E-2;9.821015358E0;9.833165716E0
2.374847082E0;4.985924959E-1;8.978256583E-2;9.821015358E0;9.834073319E0
2.376843801E0;4.794389009E-1;9.457096457E-2;9.830592155E0;9.842730691E0
2.378840520E0;4.890156984E-1;8.978256583E-2;9.801861763E0;9.814463372E0
2.380837238E0;4.985924959E-1;8.020575345E-2;9.821015358E0;9.833990548E0
2.382833957E0;4.938040972E-1;8.499415964E-2;9.830592155E0;9.843353525E0
2.384830676E0;4.890156984E-1;8.978256583E-2;9.825803757E0;9.838374700E0
2.386827395E0;4.985924959E-1;8.020575345E-2;9.821015358E0;9.833990548E0
2.388824113E0;4.985924959E-1;9.457096457E-2;9.816226959E0;9.829336186E0
2.390820832E0;4.890156984E-1;8.978256583E-2;9.806650162E0;9.819245626E0
2.392817551E0;4.985924959E-1;9.935937077E-2;9.811438560E0;9.824601437E0
2.394814270E0;4.985924959E-1;8.499415964E-2;9.835380554E0;9.848376979E0
2.396810988E0;5.081692934E-1;8.020575345E-2;9.830592155E0;9.844044449E0
2.398807707E0;4.985924959E-1;9.457096457E-2;9.835380554E0;9.848464286E0
2.400804426E0;5.033808947E-1;8.020575345E-2;9.825803757E0;9.839016453E0
2.402801145E0;5.033808947E-1;9.457096457E-2;9.830592155E0;9.843925951E0
2.404797863E0;5.033808947E-1;8.020575345E-2;9.821015358E0;9.834234487E0
2.406794582E0;5.033808947E-1;8.020575345E-2;9.830592155E0;9.843798424E0
2.408791301E0;4.985924959E-1;8.020575345E-2;9.825803757E0;9.838772632E0
2.410788020E0;4.938040972E-1;8.978256583E-2;9.816226959E0;9.829049553E0
2.412784738E0;4.985924959E-1;7.541735470E-2;9.821015358E0;9.833952660E0
2.414781457E0;5.033808947E-1;8.978256583E-2;9.830592155E0;9.843881113E0
2.416778176E0;4.938040972E-1;9.935937077E-2;9.830592155E0;9.843488045E0
2.418774947E0;4.985924959E-1;9.935937077E-2;9.844957352E0;9.858075472E0
2.420771718E0;5.081692934E-1;9.935937077E-2;9.830592155E0;9.844219138E0
2.422768488E0;4.890156984E-1;9.935937077E-2;9.797073364E0;9.809773450E0
2.424765259E0;5.081692934E-1;9.457096457E-2;9.821015358E0;9.834608399E0
2.426762030E0;4.985924959E-1;9.457096457E-2;9.821015358E0;9.834118202E0
2.428758801E0;4.938040972E-1;8.499415964E-2;9.830592155E0;9.843353525E0
2.430755572E0;4.890156984E-1;8.499415964E-2;9.811438560E0;9.823985290E0
2.432752343E0;5.033808947E-1;9.457096457E-2;9.821015358E0;9.834362138E0
2.434749113E0;4.985924959E-1;8.020575345E-2;9.825803757E0;9.838772632E0
2.436745884E0;4.842272997E-1;8.978256583E-2;9.821015358E0;9.833355462E0
2.438742655E0;4.890156984E-1;8.978256583E-2;9.840168953E0;9.852721567E0
2.440739426E0;5.081692934E-1;8.020575345E-2;9.825803757E0;9.839262597E0
2.442736197E0;4.985924959E-1;8.978256583E-2;9.821015358E0;9.834073319E0
2.444732968E0;4.890156984E-1;8.499415964E-2;9.816226959E0;9.828767577E0
2.446729738E0;4.890156984E-1;9.935937077E-2;9.830592155E0;9.843248994E0
2.448726509E0;4.985924959E-1;8.020575345E-2;9.830592155E0;9.843554722E0
2.450723280E0;5.129576921E-1;8.978256583E-2;9.816226959E0;9.830030428E0
2.452720051E0;4.890156984E-1;8.020575345E-2;9.821015358E0;9.833509647E0
2.454716822E0;5.081692934E-1;9.457096457E-2;9.830592155E0;9.844171973E0
2.456713593E0;4.842272997E-1;9.935937077E-2;9.821015358E0;9.833447566E0
2.458710363E0;5.033808947E-1;9.935937077E-2;9.825803757E0;9.839191231E0
2.460707134E0;4.890156984E-1;1.089361757E-1;9.821015358E0;9.833785950E0
2.462703905E0;4.938040972E-1;8.978256583E-2;9.816226959E0;9.829049553E0
2.464700676E0;4.985924959E-1;8.020575345E-2;9.821015358E0;9.833990548E0
2.466697447E0;5.033808947E-1;9.935937077E-2;9.821015358E0;9.834409350E0
2.468694218E0;4.985924959E-1;9.457096457E-2;9.830592155E0;9.843682252E0
2.470690988E0;5.081692934E-1;9.457096457E-2;9.835380554E0;9.848953769E0
2.472687759E0;4.985924959E-1;9.457096457E-2;9.830592155E0;9.843682252E0
2.474684530E0;4.985924959E-1;8.499415964E-2;9.821015358E0;9.834030768E0
2.476681301E0;4.985924959E-1;8.978256583E-2;9.811438560E0;9.824509250E0
2.478678072E0;5.129576921E-1;8.978256583E-2;9.830592155E0;9.844375482E0
2.480674843E0;5.033808947E-1;9.457096457E-2;9.811438560E0;9.824798350E0
2.482671613E0;4.890156984E-1;8.978256583E-2;9.821015358E0;9.833592422E0
2.484668384E0;5.081692934E-1;9.935937077E-2;9.830592155E0;9.844219138E0
2.486665155E0;4.938040972E-1;8.499415964E-2;9.825803757E0;9.838571337E0
2.488661926E0;4.985924959E-1;8.020575345E-2;9.816226959E0;9.829208470E0
2.490658697E0;4.938040972E-1;9.457096457E-2;9.816226959E0;9.829094458E0
2.492655468E0;5.081692934E-1;9.457096457E-2;9.830592155E0;9.844171973E0
2.494652238E0;5.033808947E-1;9.935937077E-2;9.830592155E0;9.843973117E0
2.496649009E0;4.890156984E-1;9.457096457E-2;9.821015358E0;9.833637307E0
2.498645780E0;4.938040972E-1;1.041477770E-1;9.830592155E0;9.843537544E0
2.500642551E0;5.033808947E-1;9.935937077E-2;9.811438560E0;9.824845609E0
2.502639322E0;5.033808947E-1;9.935937077E-2;9.830592155E0;9.843973117E0
2.504636093E0;4.985924959E-1;8.020575345E-2;9.825803757E0;9.838772632E0
2.506632863E0;4.890156984E-1;9.457096457E-2;9.816226959E0;9.828855057E0
2.508629634E0;4.938040972E-1;9.457096457E-2;9.825803757E0;9.838658731E0
2.510626405E0;4.938040972E-1;8.978256583E-2;9.830592155E0;9.843396036E0
2.512623176E0;4.985924959E-1;1.041477770E-1;9.821015358E0;9.834214961E0
2.514619947E0;4.890156984E-1;8.978256583E-2;9.816226959E0;9.828810151E0
2.516616718E0;5.033808947E-1;8.020575345E-2;9.830592155E0;9.843798424E0
2.518613488E0;4.890156984E-1;9.457096457E-2;9.816226959E0;9.828855057E0
2.520610259E0;4.985924959E-1;9.457096457E-2;9.811438560E0;9.824554177E0
2.522607030E0;4.985924959E-1;1.089361757E-1;9.835380554E0;9.848612705E0
2.524603801E0;5.081692934E-1;1.041477770E-1;9.830592155E0;9.844268633E0
2.526600572E0;4.938040972E-1;8.499415964E-2;9.830592155E0;9.843353525E0
2.528597291E0;5.033808947E-1;9.457096457E-2;9.830592155E0;9.843925951E0
2.530594009E0;4.890156984E-1;9.457096457E-2;9.840168953E0;9.852766365E0
2.532590728E0;4.985924959E-1;8.978256583E-2;9.811438560E0;9.824509250E0
2.534587447E0;4.985924959E-1;8.499415964E-2;9.830592155E0;9.843594903E0
2.536584166E0;4.985924959E-1;9.457096457E-2;9.835380554E0;9.848464286E0
2.538580884E0;4.985924959E-1;8.499415964E-2;9.816226959E0;9.829248710E0
2.540577603E0;4.938040972E-1;7.541735470E-2;9.825803757E0;9.838493265E0
2.542574322E0;4.938040972E-1;1.041477770E-1;9.825803757E0;9.838755445E0
2.544571041E0;4.890156984E-1;8.978256583E-2;9.830592155E0;9.843156983E0
2.546567759E0;4.985924959E-1;1.041477770E-1;9.825803757E0;9.838996936E0
2.548564478E0;5.033808947E-1;8.499415964E-2;9.830592155E0;9.843838604E0
2.550561197E0;4.890156984E-1;1.041477770E-1;9.816226959E0;9.828951868E0
2.552557916E0;5.033808947E-1;9.457096457E-2;9.840168953E0;9.853489789E0
2.554554634E0;5.081692934E-1;8.499415964E-2;9.816226959E0;9.829739150E0
2.556551353E0;4.938040972E-1;9.935937077E-2;9.821015358E0;9.833923807E0
2.558548072E0;4.890156984E-1;8.499415964E-2;9.816226959E0;9.828767577E0
2.560544791E0;4.890156984E-1;9.457096457E-2;9.806650162E0;9.819290576E0
2.562541509E0;4.938040972E-1;9.935937077E-2;9.835380554E0;9.848270174E0
2.564538228E0;4.938040972E-1;7.062894851E-2;9.821015358E0;9.833675488E0
2.566534947E0;4.985924959E-1;8.499415964E-2;9.821015358E0;9.834030768E0
2.568531666E0;4.938040972E-1;8.499415964E-2;9.825803757E0;9.838571337E0
2.570528384E0;5.033808947E-1;8.499415964E-2;9.821015358E0;9.834274706E0
2.572525103E0;5.033808947E-1;9.935937077E-2;9.806650162E0;9.820063747E0
2.574521822E0;5.081692934E-1;8.978256583E-2;9.835380554E0;9.848908954E0
2.576518541E0;4.985924959E-1;7.062894851E-2;9.825803757E0;9.838699222E0
2.578515259E0;5.033808947E-1;1.041477770E-1;9.825803757E0;9.839240751E0
2.580511978E0;4.890156984E-1;9.935937077E-2;9.821015358E0;9.833684523E0
2.582508697E0;5.033808947E-1;8.499415964E-2;9.830592155E0;9.843838604E0
2.584505416E0;4.794389009E-1;9.457096457E-2;9.825803757E0;9.837948200E0
2.586502134E0;4.938040972E-1;9.457096457E-2;9.825803757E0;9.838658731E0
2.588498853E0;4.842272997E-1;9.457096457E-2;9.821015358E0;9.833400348E0
2.590495572E0;4.842272997E-1;9.457096457E-2;9.811438560E0;9.823835624E0
2.592492291E0;4.938040972E-1;9.457096457E-2;9.821015358E0;9.833876591E0
2.594489009E0;4.985924959E-1;9.935937077E-2;9.825803757E0;9.838947415E0
2.596485728E0;5.081692934E-1;9.935937077E-2;9.811438560E0;9.825092109E0
2.598482447E0;4.938040972E-1;9.935937077E-2;9.830592155E0;9.843488045E0
2.600479166E0;4.938040972E-1;9.457096457E-2;9.825803757E0;9.838658731E0
2.602475884E0;4.938040972E-1;1.089361757E-1;9.835380554E0;9.848371450E0
2.604472603E0;4.985924959E-1;9.935937077E-2;9.835380554E0;9.848511431E0
2.606469322E0;4.842272997E-1;8.978256583E-2;9.825803757E0;9.838137855E0
2.608466041E0;4.985924959E-1;9.935937077E-2;9.821015358E0;9.834165416E0
2.610462759E0;5.081692934E-1;8.020575345E-2;9.840168953E0;9.853608172E0
2.612459478E0;4.938040972E-1;8.978256583E-2;9.830592155E0;9.843396036E0
2.614456197E0;5.033808947E-1;8.020575345E-2;9.821015358E0;9.834234487E0
2.616452968E0;4.842272997E-1;8.020575345E-2;9.830592155E0;9.842837557E0
2.618449738E0;4.890156984E-1;9.457096457E-2;9.830592155E0;9.843201824E0
2.620446509E0;4.890156984E-1;8.499415964E-2;9.835380554E0;9.847896781E0
2.622443280E0;4.985924959E-1;9.935937077E-2;9.825803757E0;9.838947415E0
2.624440051E0;5.081692934E-1;8.499415964E-2;9.830592155E0;9.844084628E0
2.626436822E0;5.033808947E-1;9.457096457E-2;9.830592155E0;9.843925951E0
2.628433593E0;4.985924959E-1;7.062894851E-2;9.821015358E0;9.833917103E0
2.630430363E0;4.698620737E-1;8.499415964E-2;9.835380554E0;9.846964254E0
2.632427134E0;4.938040972E-1;9.935937077E-2;9.816226959E0;9.829141696E0
2.634423905E0;5.033808947E-1;8.499415964E-2;9.825803757E0;9.839056652E0
2.636420676E0;4.890156984E-1;8.978256583E-2;9.816226959E0;9.828810151E0
2.638417447E0;4.794389009E-1;8.978256583E-2;9.825803757E0;9.837903335E0
2.640414218E0;4.985924959E-1;9.935937077E-2;9.840168953E0;9.853293449E0
2.642410988E0;5.129576921E-1;8.978256583E-2;9.821015358E0;9.834812106E0
2.644407759E0;4.985924959E-1;9.457096457E-2;9.840168953E0;9.853246326E0
2.646404530E0;5.081692934E-1;8.020575345E-2;9.821015358E0;9.834480752E0
2.648401301E0;4.985924959E-1;8.499415964E-2;9.816226959E0;9.829248710E0
2.650398072E0;4.842272997E-1;8.978256583E-2;9.811438560E0;9.823790695E0
2.652394843E0;4.938040972E-1;9.457096457E-2;9.840168953E0;9.853005185E0
2.654391613E0;4.938040972E-1;8.020575345E-2;9.825803757E0;9.838531136E0
2.656388384E0;5.081692934E-1;8.978256583E-2;9.830592155E0;9.844127136E0
2.658385155E0;4.890156984E-1;8.978256583E-2;9.816226959E0;9.828810151E0
2.660381926E0;4.985924959E-1;9.935937077E-2;9.830592155E0;9.843729420E0
2.662378697E0;4.985924959E-1;9.457096457E-2;9.830592155E0;9.843682252E0
2.664375468E0;4.890156984E-1;8.978256583E-2;9.821015358E0;9.833592422E0
2.666372238E0;4.985924959E-1;8.978256583E-2;9.835380554E0;9.848419469E0
2.668369009E0;4.985924959E-1;9.457096457E-2;9.830592155E0;9.843682252E0
2.670365780E0;4.938040972E-1;1.041477770E-1;9.825803757E0;9.838755445E0
2.672362551E0;5.081692934E-1;9.935937077E-2;9.811438560E0;9.825092109E0
2.674359322E0;5.033808947E-1;1.041477770E-1;9.816226959E0;9.829677045E0
2.676356093E0;4.938040972E-1;9.457096457E-2;9.830592155E0;9.843440876E0
2.678352863E0;4.890156984E-1;8.978256583E-2;9.840168953E0;9.852721567E0
2.680349634E0;4.938040972E-1;9.935937077E-2;9.821015358E0;9.833923807E0
2.682346405E0;4.890156984E-1;1.041477770E-1;9.844957352E0;9.857645174E0
2.684343176E0;4.890156984E-1;9.457096457E-2;9.840168953E0;9.852766365E0
2.686339947E0;4.890156984E-1;8.499415964E-2;9.821015358E0;9.833549869E0
2.688336718E0;4.985924959E-1;9.935937077E-2;9.840168953E0;9.853293449E0
2.690333488E0;4.890156984E-1;9.935937077E-2;9.830592155E0;9.843248994E0
2.692330259E0;4.842272997E-1;8.499415964E-2;9.821015358E0;9.833312908E0
2.694327030E0;4.938040972E-1;8.978256583E-2;9.835380554E0;9.848178209E0
2.696323801E0;4.985924959E-1;9.457096457E-2;9.830592155E0;9.843682252E0
2.698320572E0;4.985924959E-1;7.541735470E-2;9.821015358E0;9.833952660E0
2.700317343E0;5.081692934E-1;9.935937077E-2;9.835380554E0;9.849000912E0
2.702314113E0;4.938040972E-1;8.499415964E-2;9.821015358E0;9.833789156E0
2.704310884E0;5.033808947E-1;1.137245819E-1;9.830592155E0;9.844128592E0
2.706307655E0;4.842272997E-1;1.089361757E-1;9.816226959E0;9.828766702E0
2.708304426E0;5.081692934E-1;7.541735470E-2;9.821015358E0;9.834442865E0
2.710301197E0;5.033808947E-1;9.457096457E-2;9.825803757E0;9.839144041E0
2.712297968E0;4.985924959E-1;9.935937077E-2;9.830592155E0;9.843729420E0
2.714294738E0;4.890156984E-1;9.457096457E-2;9.825803757E0;9.838419562E0
2.716291509E0;4.842272997E-1;8.499415964E-2;9.821015358E0;9.833312908E0
2.718288280E0;5.033808947E-1;8.978256583E-2;9.821015358E0;9.834317256E0
2.720285051E0;5.033808947E-1;9.935937077E-2;9.821015358E0;9.834409350E0
2.722281822E0;5.033808947E-1;8.499415964E-2;9.825803757E0;9.839056652E0
2.724278593E0;4.938040972E-1;8.978256583E-2;9.830592155E0;9.843396036E0
2.726275363E0;4.985924959E-1;8.499415964E-2;9.840168953E0;9.853159062E0
2.728272082E0;5.081692934E-1;8.020575345E-2;9.830592155E0;9.844044449E0
2.730268801E0;4.938040972E-1;8.978256583E-2;9.835380554E0;9.848178209E0
2.732265520E0;4.842272997E-1;9.457096457E-2;9.825803757E0;9.838182719E0
2.734262238E0;4.938040972E-1;8.978256583E-2;9.816226959E0;9.829049553E0
2.736258957E0;5.033808947E-1;9.935937077E-2;9.830592155E0;9.843973117E0
2.738255676E0;4.890156984E-1;8.978256583E-2;9.830592155E0;9.843156983E0
2.740252395E0;5.033808947E-1;9.935937077E-2;9.830592155E0;9.843973117E0
2.742249113E0;4.890156984E-1;8.978256583E-2;9.825803757E0;9.838374700E0
2.744245832E0;4.985924959E-1;8.499415964E-2;9.840168953E0;9.853159062E0
2.746242551E0;4.890156984E-1;8.978256583E-2;9.835380554E0;9.847939272E0
2.748239270E0;5.081692934E-1;9.457096457E-2;9.844957352E0;9.858517381E0
2.750235988E0;5.033808947E-1;9.935937077E-2;9.821015358E0;9.834409350E0
2.752232707E0;5.081692934E-1;8.499415964E-2;9.825803757E0;9.839302796E0
2.754229426E0;5.033808947E-1;8.499415964E-2;9.830592155E0;9.843838604E0
2.756226145E0;4.938040972E-1;9.935937077E-2;9.821015358E0;9.833923807E0
2.758222863E0;4.842272997E-1;9.457096457E-2;9.830592155E0;9.842965096E0
2.760219582E0;4.938040972E-1;8.978256583E-2;9.821015358E0;9.833831708E0
2.762216301E0;4.985924959E-1;7.541735470E-2;9.816226959E0;9.829170564E0
2.764213020E0;4.985924959E-1;1.041477770E-1;9.830592155E0;9.843778917E0
2.766209738E0;4.985924959E-1;1.089361757E-1;9.830592155E0;9.843830743E0
2.768206457E0;4.938040972E-1;9.457096457E-2;9.830592155E0;9.843440876E0
2.770203176E0;4.985924959E-1;8.978256583E-2;9.821015358E0;9.834073319E0
2.772199895E0;4.985924959E-1;8.978256583E-2;9.816226959E0;9.829291282E0
2.774196613E0;5.033808947E-1;9.457096457E-2;9.825803757E0;9.839144041E0
2.776193332E0;5.081692934E-1;9.935937077E-2;9.821015358E0;9.834655610E0
2.778190051E0;4.938040972E-1;9.457096457E-2;9.825803757E0;9.838658731E0
2.780186770E0;4.985924959E-1;8.499415964E-2;9.825803757E0;9.838812832E0
2.782183488E0;4.890156984E-1;8.020575345E-2;9.830592155E0;9.843074288E0
2.784180207E0;5.129576921E-1;8.499415964E-2;9.821015358E0;9.834769558E0
2.786176926E0;4.890156984E-1;8.978256583E-2;9.825803757E0;9.838374700E0
2.788173645E0;4.890156984E-1;8.978256583E-2;9.844957352E0;9.857503869E0
2.790170363E0;5.081692934E-1;9.935937077E-2;9.825803757E0;9.839437371E0
2.792167082E0;4.842272997E-1;9.457096457E-2;9.830592155E0;9.842965096E0
2.794163801E0;4.746504724E-1;8.499415964E-2;9.816226959E0;9.828063329E0
2.796160520E0;4.938040972E-1;8.978256583E-2;9.821015358E0;9.833831708E0
2.798157238E0;4.890156984E-1;9.457096457E-2;9.825803757E0;9.838419562E0
2.800153957E0;4.890156984E-1;9.457096457E-2;9.840168953E0;9.852766365E0
2.802150676E0;4.938040972E-1;9.457096457E-2;9.825803757E0;9.838658731E0
2.804147395E0;4.938040972E-1;1.041477770E-1;9.840168953E0;9.853101759E0
2.806144113E0;4.890156984E-1;9.935937077E-2;9.840168953E0;9.852813490E0
2.808140832E0;4.842272997E-1;9.457096457E-2;9.830592155E0;9.842965096E0
2.810137551E0;4.938040972E-1;9.457096457E-2;9.825803757E0;9.838658731E0
2.812134270E0;5.033808947E-1;9.457096457E-2;9.835380554E0;9.848707866E0
2.814131041E0;4.890156984E-1;9.457096457E-2;9.825803757E0;9.838419562E0
2.816127811E0;5.033808947E-1;8.499415964E-2;9.835380554E0;9.848620562E0
2.818124582E0;4.938040972E-1;1.041477770E-1;9.811438560E0;9.824409187E0
2.820121353E0;4.890156984E-1;8.978256583E-2;9.835380554E0;9.847939272E0
2.822118124E0;5.033808947E-1;9.457096457E-2;9.830592155E0;9.843925951E0
2.824114895E0;4.890156984E-1;8.978256583E-2;9.825803757E0;9.838374700E0
2.826111666E0;4.794389009E-1;9.457096457E-2;9.816226959E0;9.828383236E0
2.828108436E0;4.938040972E-1;8.499415964E-2;9.840168953E0;9.852917919E0
2.830105207E0;4.890156984E-1;9.457096457E-2;9.825803757E0;9.838419562E0
2.832101978E0;4.938040972E-1;9.457096457E-2;9.830592155E0;9.843440876E0
2.834098749E0;4.985924959E-1;9.935937077E-2;9.825803757E0;9.838947415E0
2.836095520E0;4.890156984E-1;8.978256583E-2;9.825803757E0;9.838374700E0
2.838092291E0;4.985924959E-1;8.978256583E-2;9.821015358E0;9.834073319E0
2.840089061E0;4.985924959E-1;1.041477770E-1;9.830592155E0;9.843778917E0
2.842085832E0;4.985924959E-1;8.978256583E-2;9.840168953E0;9.853201531E0
2.844082603E0;4.985924959E-1;8.020575345E-2;9.835380554E0;9.848336818E0
2.846079374E0;4.985924959E-1;9.935937077E-2;9.830592155E0;9.843729420E0
2.848076145E0;4.985924959E-1;7.541735470E-2;9.835380554E0;9.848298985E0
2.850072916E0;5.081692934E-1;8.978256583E-2;9.816226959E0;9.829781720E0
2.852069686E0;5.081692934E-1;9.457096457E-2;9.816226959E0;9.829826622E0
2.854066457E0;4.938040972E-1;8.020575345E-2;9.830592155E0;9.843313343E0
2.856063228E0;4.985924959E-1;9.935937077E-2;9.840168953E0;9.853293449E0
2.858059999E0;4.985924959E-1;8.499415964E-2;9.816226959E0;9.829248710E0
2.860056770E0;4.794389009E-1;9.935937077E-2;9.825803757E0;9.837995396E0
2.862053541E0;4.890156984E-1;7.541735470E-2;9.825803757E0;9.838254093E0
2.864050311E0;5.321113467E-1;1.089361757E-1;9.648633003E0;9.663908547E0
2.866047082E0;5.129576921E-1;1.328781992E-1;9.414001465E0;9.428902682E0
2.868043853E0;4.219780564E-1;8.499415964E-2;9.629479408E0;9.639095557E0
2.870040624E0;4.124012291E-1;5.147533491E-2;9.916783333E0;9.925488207E0
2.872037395E0;4.890156984E-1;8.978256583E-2;1.005085850E1;1.006314830E1
2.874034166E0;5.416881442E-1;9.457096457E-2;1.007958889E1;1.009457686E1
2.876030936E0;5.321113467E-1;7.541735470E-2;9.988609314E0;1.000305685E1
2.878027707E0;5.273229480E-1;7.541735470E-2;9.825803757E0;9.840232555E0
2.880024478E0;5.321113467E-1;8.978256583E-2;9.691728592E0;9.706740261E0
2.882021249E0;5.177460909E-1;1.137245819E-1;9.691728592E0;9.706214370E0
2.884018020E0;4.794389009E-1;1.041477770E-1;9.806650162E0;9.818915206E0
2.886014791E0;4.602852762E-1;8.499415964E-2;9.916783333E0;9.927823438E0
2.888011561E0;4.650736749E-1;8.020575345E-2;9.935936928E0;9.947138740E0
2.890008332E0;4.746504724E-1;8.020575345E-2;9.902418137E0;9.914111709E0
2.892005103E0;5.081692934E-1;9.457096457E-2;9.864110947E0;9.877644682E0
2.894001874E0;5.225345492E-1;9.457096457E-2;9.821015358E0;9.835361136E0
2.895998645E0;5.129576921E-1;1.041477770E-1;9.801861763E0;9.815827340E0
2.897995416E0;5.129576921E-1;1.089361757E-1;9.830592155E0;9.844568798E0
2.899992186E0;5.033808947E-1;8.978256583E-2;9.849745750E0;9.863008901E0
2.901988957E0;4.938040972E-1;9.935937077E-2;9.864110947E0;9.876963073E0
2.903985728E0;4.842272997E-1;8.978256583E-2;9.840168953E0;9.852485068E0
2.905982499E0;4.985924959E-1;7.541735470E-2;9.840168953E0;9.853081106E0
2.907979270E0;4.890156984E-1;9.935937077E-2;9.821015358E0;9.833684523E0
2.909976041E0;4.890156984E-1;8.499415964E-2;9.849745750E0;9.862243746E0
2.911972811E0;5.177460909E-1;8.499415964E-2;9.859322548E0;9.873273324E0
2.913969582E0;5.081692934E-1;8.978256583E-2;9.868899345E0;9.882381860E0
2.915966353E0;4.938040972E-1;1.137245819E-1;9.878476143E0;9.891464334E0
2.917963124E0;5.225345492E-1;1.041477770E-1;9.888052940E0;9.902397693E0
2.919959895E0;4.938040972E-1;7.541735470E-2;9.878476143E0;9.891098077E0
2.921956666E0;5.033808947E-1;8.978256583E-2;9.873687744E0;9.886918777E0
2.923953436E0;4.985924959E-1;8.499415964E-2;9.864110947E0;9.877069568E0
2.925950207E0;4.938040972E-1;8.020575345E-2;9.849745750E0;9.862442233E0
2.927946978E0;4.890156984E-1;8.978256583E-2;9.873687744E0;9.886197800E0
2.929943749E0;4.985924959E-1;8.499415964E-2;9.849745750E0;9.862723246E0
2.931940468E0;5.081692934E-1;9.935937077E-2;9.854534149E0;9.868128070E0
2.933937186E0;5.033808947E-1;8.020575345E-2;9.864110947E0;9.877272400E0
2.935933905E0;4.698620737E-1;8.499415964E-2;9.844957352E0;9.856529797E0
2.937930624E0;4.985924959E-1;8.499415964E-2;9.811438560E0;9.824466658E0
2.939927343E0;4.842272997E-1;8.978256583E-2;9.777919769E0;9.790314193E0
2.941924061E0;4.890156984E-1;9.457096457E-2;9.782708168E0;9.795379478E0
2.943920780E0;4.985924959E-1;8.978256583E-2;9.811438560E0;9.824509250E0
2.945917499E0;5.081692934E-1;9.457096457E-2;9.811438560E0;9.825044851E0
2.947914218E0;5.033808947E-1;9.457096457E-2;9.821015358E0;9.834362138E0
2.949910936E0;5.081692934E-1;8.978256583E-2;9.840168953E0;9.853690779E0
2.951907655E0;5.129576921E-1;1.089361757E-1;9.768342972E0;9.782408553E0
2.953904374E0;5.129576921E-1;8.499415964E-2;9.715670586E0;9.729573707E0
2.955901093E0;4.698620737E-1;1.137245819E-1;9.744400978E0;9.756385297E0
2.957897811E0;4.890156984E-1;9.457096457E-2;9.806650162E0;9.819290576E0
2.959894530E0;4.938040972E-1;8.978256583E-2;9.854534149E0;9.867306963E0
2.961891249E0;5.081692934E-1;9.935937077E-2;9.854534149E0;9.868128070E0
2.963887968E0;5.129576921E-1;8.978256583E-2;9.859322548E0;9.873065765E0
2.965884686E0;5.033808947E-1;8.020575345E-2;9.821015358E0;9.834234487E0
2.967881405E0;4.890156984E-1;1.041477770E-1;9.801861763E0;9.814605297E0
2.969878124E0;4.985924959E-1;8.978256583E-2;9.782708168E0;9.795817193E0
2.971874843E0;4.985924959E-1;8.978256583E-2;9.801861763E0;9.814945207E0
